Folder: UFTM/Ensaio de tração/Dados - Tração

File: P2-aluminio.txt
0
Diameter:	   5.00
   1.00
Area:	  19.6350
GaugeLength:	  50.00
2009-1-1
A3
001
DataNumber:	11112
index	Load(kN)	Defor(mm)	Stroke(mm)	Time(s)
    0	  0.1080	  0.0012	   0.001	   0.045
   47	  0.4776	  0.0056	   0.039	   2.395
   94	  0.8372	  0.0104	   0.078	   4.745
  141	  1.1688	  0.0144	   0.116	   7.095
  188	  1.4864	  0.0184	   0.155	   9.445
  235	  1.7868	  0.0224	   0.194	  11.795
  282	  2.1200	  0.0264	   0.241	  14.145
  329	  2.3620	  0.0296	   0.280	  16.495
  376	  2.5710	  0.0324	   0.319	  18.845
  423	  2.7570	  0.0348	   0.357	  21.195
  470	  2.9230	  0.0372	   0.397	  23.545
  517	  3.0670	  0.0388	   0.436	  25.895
  564	  3.2010	  0.0408	   0.475	  28.245
  611	  3.3240	  0.0424	   0.514	  30.595
  658	  3.4430	  0.0440	   0.554	  32.945
  705	  3.5550	  0.0456	   0.592	  35.295
  752	  3.6690	  0.0476	   0.631	  37.645
  799	  3.7820	  0.0488	   0.670	  39.995
  846	  3.8920	  0.0504	   0.709	  42.345
  893	  4.0020	  0.0520	   0.748	  44.695
  940	  4.1110	  0.0536	   0.787	  47.045
  987	  4.2190	  0.0548	   0.826	  49.395
 1034	  4.3290	  0.0560	   0.865	  51.745
 1081	  4.4380	  0.0580	   0.904	  54.095
 1128	  4.6020	  0.0596	   0.951	  56.445
 1175	  4.7140	  0.0608	   0.990	  58.795
 1222	  4.8280	  0.0624	   1.029	  61.145
 1269	  4.9400	  0.0640	   1.067	  63.495
 1316	  5.0500	  0.0652	   1.106	  65.845
 1363	  5.1640	  0.0668	   1.145	  68.195
 1410	  5.2760	  0.0684	   1.185	  70.545
 1457	  5.3900	  0.0700	   1.224	  72.895
 1504	  5.5020	  0.0712	   1.262	  75.245
 1551	  5.6160	  0.0728	   1.301	  77.595
 1598	  5.7280	  0.0744	   1.340	  79.945
 1645	  5.8400	  0.0756	   1.379	  82.295
 1692	  5.9560	  0.0776	   1.418	  84.645
 1739	  6.0700	  0.0788	   1.457	  86.995
 1786	  6.1860	  0.0804	   1.496	  89.345
 1833	  6.3000	  0.0816	   1.535	  91.695
 1880	  6.4160	  0.0832	   1.574	  94.045
 1927	  6.5340	  0.0848	   1.612	  96.395
 1974	  6.6480	  0.0860	   1.651	  98.745
 2021	  6.7660	  0.0880	   1.690	 101.095
 2068	  6.8860	  0.0892	   1.730	 103.445
 2115	  6.9700	  0.0904	   1.760	 105.795
 2162	  7.1020	  0.0920	   1.799	 108.145
 2209	  7.2220	  0.0936	   1.839	 110.495
 2256	  7.3440	  0.0952	   1.877	 112.845
 2303	  7.4660	  0.0968	   1.916	 115.195
 2350	  7.5880	  0.0984	   1.956	 117.545
 2397	  7.7080	  0.1000	   1.995	 119.895
 2444	  7.8320	  0.1016	   2.035	 122.245
 2491	  7.9540	  0.1032	   2.074	 124.595
 2538	  8.0760	  0.1048	   2.112	 126.945
 2585	  8.2000	  0.1060	   2.152	 129.295
 2632	  8.3220	  0.1076	   2.191	 131.645
 2679	  8.4460	  0.1092	   2.230	 133.995
 2726	  8.5700	  0.1108	   2.270	 136.345
 2773	  8.6920	  0.1124	   2.309	 138.695
 2820	  8.8160	  0.1140	   2.347	 141.045
 2867	  8.9420	  0.1156	   2.388	 143.395
 2914	  9.0680	  0.1176	   2.435	 145.745
 2961	  9.1920	  0.1192	   2.475	 148.095
 3008	  9.3200	  0.1208	   2.514	 150.445
 3055	  9.4480	  0.1224	   2.553	 152.795
 3102	  9.5720	  0.1240	   2.592	 155.145
 3149	  9.6960	  0.1260	   2.631	 157.495
 3196	  9.8280	  0.1276	   2.671	 159.845
 3243	  9.9560	  0.1296	   2.710	 162.195
 3290	 10.0840	  0.1312	   2.749	 164.545
 3337	 10.2120	  0.1332	   2.789	 166.895
 3384	 10.3400	  0.1348	   2.829	 169.245
 3431	 10.4680	  0.1364	   2.867	 171.595
 3478	 10.6000	  0.1380	   2.906	 173.945
 3525	 10.7320	  0.1400	   2.946	 176.295
 3572	 10.8640	  0.1420	   2.985	 178.645
 3619	 10.9920	  0.1436	   3.025	 180.995
 3666	 11.1280	  0.1452	   3.064	 183.345
 3713	 11.2600	  0.1472	   3.104	 185.695
 3760	 11.3960	  0.1492	   3.144	 188.045
 3807	 11.5280	  0.1512	   3.182	 190.395
 3854	 11.6680	  0.1532	   3.221	 192.745
 3901	 11.8040	  0.1552	   3.261	 195.095
 3948	 11.9400	  0.1572	   3.301	 197.445
 3995	 12.0760	  0.1592	   3.340	 199.795
 4042	 12.2080	  0.1616	   3.380	 202.145
 4089	 12.3440	  0.1640	   3.419	 204.495
 4136	 12.4760	  0.1664	   3.457	 206.845
 4183	 12.6080	  0.1692	   3.497	 209.195
 4230	 12.7400	  0.1720	   3.536	 211.545
 4277	 12.8640	  0.1756	   3.576	 213.895
 4324	 12.9880	  0.1796	   3.615	 216.245
 4371	 13.1040	  0.1848	   3.655	 218.595
 4418	 13.2040	  0.1912	   3.694	 220.945
 4465	 13.3000	  0.1992	   3.734	 223.295
 4512	 13.3880	  0.2088	   3.772	 225.645
 4559	 13.4600	  0.2200	   3.812	 227.995
 4606	 13.5280	  0.2332	   3.851	 230.345
 4653	 13.5800	  0.2476	   3.891	 232.695
 4700	 13.6240	  0.2636	   3.930	 235.045
 4747	 13.6640	  0.2960	   3.969	 237.395
 4794	 13.6960	  0.3360	   4.009	 239.745
 4841	 13.7240	  0.3748	   4.048	 242.095
 4888	 13.7520	  0.4148	   4.088	 244.445
 4935	 13.7760	  0.4535	   4.126	 246.795
 4982	 13.8000	  0.4935	   4.166	 249.145
 5029	 13.8240	  0.5323	   4.205	 251.495
 5076	 13.8440	  0.5723	   4.245	 253.845
 5123	 13.8640	  0.6110	   4.284	 256.195
 5170	 13.8840	  0.6510	   4.324	 258.545
 5217	 13.9000	  0.6898	   4.362	 260.895
 5264	 13.9200	  0.7298	   4.402	 263.245
 5311	 13.9360	  0.7685	   4.441	 265.595
 5358	 13.9520	  0.8073	   4.480	 267.945
 5405	 13.9680	  0.8473	   4.520	 270.295
 5452	 13.9840	  0.8860	   4.559	 272.645
 5499	 14.0000	  0.9248	   4.597	 274.995
 5546	 14.0160	  0.9648	   4.637	 277.345
 5593	 14.0280	  1.0035	   4.676	 279.695
 5640	 14.0440	  1.0435	   4.716	 282.045
 5687	 14.0560	  1.0823	   4.755	 284.395
 5734	 14.0680	  1.1210	   4.794	 286.745
 5781	 14.0800	  1.1610	   4.834	 289.095
 5828	 14.0960	  1.1998	   4.872	 291.445
 5875	 14.1080	  1.2385	   4.911	 293.795
 5922	 14.1200	  1.2785	   4.951	 296.145
 5969	 14.1320	  1.3173	   4.990	 298.495
 6016	 14.1440	  1.3560	   5.029	 300.845
 6063	 14.1560	  1.3960	   5.069	 303.195
 6110	 14.1680	  1.4348	   5.108	 305.545
 6157	 14.1800	  1.4748	   5.148	 307.895
 6204	 14.1880	  1.5135	   5.186	 310.245
 6251	 14.1960	  1.5523	   5.225	 312.595
 6298	 14.2080	  1.5923	   5.265	 314.945
 6345	 14.2200	  1.6310	   5.304	 317.295
 6392	 14.2320	  1.6710	   5.344	 319.645
 6439	 14.2440	  1.7098	   5.382	 321.995
 6486	 14.2520	  1.7485	   5.421	 324.345
 6533	 14.2600	  1.7885	   5.461	 326.695
 6580	 14.2720	  1.8348	   5.507	 329.045
 6627	 14.2840	  1.8748	   5.547	 331.395
 6674	 14.2920	  1.9135	   5.586	 333.745
 6721	 14.3000	  1.9535	   5.626	 336.095
 6768	 14.3080	  1.9923	   5.665	 338.445
 6815	 14.3160	  2.0310	   5.704	 340.795
 6862	 14.3240	  2.0710	   5.744	 343.145
 6909	 14.3320	  2.1098	   5.782	 345.495
 6956	 14.3400	  2.1485	   5.821	 347.845
 7003	 14.3480	  2.1885	   5.861	 350.195
 7050	 14.3560	  2.2273	   5.900	 352.545
 7097	 14.3600	  2.2673	   5.940	 354.895
 7144	 14.3640	  2.3060	   5.979	 357.245
 7191	 14.3720	  2.3448	   6.017	 359.595
 7238	 14.3760	  2.3848	   6.057	 361.945
 7285	 14.3840	  2.4235	   6.096	 364.295
 7332	 14.3880	  2.4635	   6.136	 366.645
 7379	 14.3920	  2.5023	   6.175	 368.995
 7426	 14.3960	  2.5423	   6.215	 371.345
 7473	 14.4000	  2.5810	   6.254	 373.695
 7520	 14.4000	  2.6210	   6.294	 376.045
 7567	 14.4040	  2.6598	   6.332	 378.395
 7614	 14.4040	  2.6998	   6.372	 380.745
 7661	 14.4080	  2.7385	   6.411	 383.095
 7708	 14.4040	  2.7785	   6.451	 385.445
 7755	 14.4040	  2.8173	   6.490	 387.795
 7802	 14.4040	  2.8560	   6.529	 390.145
 7849	 14.4000	  2.8960	   6.569	 392.495
 7896	 14.3960	  2.9348	   6.608	 394.845
 7943	 14.3880	  2.9748	   6.648	 397.195
 7990	 14.3840	  3.0135	   6.686	 399.545
 8037	 14.3720	  3.0535	   6.726	 401.895
 8084	 14.3640	  3.0923	   6.765	 404.245
 8131	 14.3520	  3.1310	   6.804	 406.595
 8178	 14.3360	  3.1710	   6.844	 408.945
 8225	 14.3200	  3.2110	   6.884	 411.295
 8272	 14.3040	  3.2498	   6.922	 413.645
 8319	 14.2840	  3.2898	   6.962	 415.995
 8366	 14.2600	  3.3285	   7.001	 418.345
 8413	 14.2320	  3.3685	   7.041	 420.695
 8460	 14.2080	  3.4073	   7.080	 423.045
 8507	 14.1800	  3.4473	   7.120	 425.395
 8554	 14.1480	  3.4860	   7.159	 427.745
 8601	 14.1160	  3.5260	   7.199	 430.095
 8648	 14.0800	  3.5648	   7.237	 432.445
 8695	 14.0440	  3.6048	   7.277	 434.795
 8742	 14.0040	  3.6435	   7.316	 437.145
 8789	 13.9680	  3.6835	   7.356	 439.495
 8836	 13.9280	  3.7223	   7.395	 441.845
 8883	 13.8840	  3.7623	   7.435	 444.195
 8930	 13.8400	  3.8023	   7.475	 446.545
 8977	 13.7960	  3.8410	   7.514	 448.895
 9024	 13.7480	  3.8810	   7.554	 451.245
 9071	 13.7000	  3.9198	   7.592	 453.595
 9118	 13.6520	  3.9585	   7.631	 455.945
 9165	 13.6000	  3.9985	   7.671	 458.295
 9212	 13.5480	  4.0385	   7.711	 460.645
 9259	 13.5000	  4.0773	   7.750	 462.995
 9306	 13.4440	  4.1173	   7.790	 465.345
 9353	 13.3920	  4.1560	   7.829	 467.695
 9400	 13.3360	  4.1960	   7.869	 470.045
 9447	 13.2840	  4.2348	   7.907	 472.395
 9494	 13.2240	  4.2748	   7.947	 474.745
 9541	 13.1680	  4.3148	   7.987	 477.095
 9588	 13.1080	  4.3535	   8.026	 479.445
 9635	 13.0520	  4.3923	   8.065	 481.795
 9682	 12.9880	  4.4323	   8.105	 484.145
 9729	 12.9240	  4.4710	   8.144	 486.495
 9776	 12.8520	  4.5198	   8.193	 488.845
 9823	 12.7880	  4.5585	   8.231	 491.195
 9870	 12.7240	  4.5985	   8.271	 493.545
 9917	 12.6560	  4.6373	   8.310	 495.895
 9964	 12.5880	  4.6760	   8.349	 498.245
10011	 12.5200	  4.7160	   8.389	 500.595
10058	 12.4520	  4.7548	   8.427	 502.945
10105	 12.3840	  4.7935	   8.466	 505.295
10152	 12.3120	  4.8335	   8.506	 507.645
10199	 12.2400	  4.8735	   8.546	 509.995
10246	 12.1680	  4.9123	   8.585	 512.345
10293	 12.0920	  4.9510	   8.624	 514.695
10340	 12.0160	  4.9910	   8.664	 517.045
10387	 11.9400	  5.0298	   8.702	 519.395
10434	 11.8640	  5.0685	   8.741	 521.745
10481	 11.7840	  5.1085	   8.781	 524.095
10528	 11.7040	  5.1473	   8.820	 526.445
10575	 11.6240	  5.1860	   8.859	 528.795
10622	 11.5400	  5.2260	   8.899	 531.145
10669	 11.4560	  5.2648	   8.938	 533.495
10716	 11.3680	  5.3035	   8.976	 535.845
10763	 11.2800	  5.3435	   9.016	 538.195
10810	 11.1920	  5.3823	   9.055	 540.545
10857	 11.0920	  5.4223	   9.095	 542.895
10904	 10.9920	  5.4610	   9.134	 545.245
10951	 10.8880	  5.4998	   9.172	 547.595
10998	 10.7680	  5.5398	   9.212	 549.945
11045	 10.5160	  5.5785	   9.251	 552.295
11092	  0.2400	  5.6173	   9.290	 554.645
11111	  0.2400	  5.6335	   9.306	 555.595
ControlMode:	0
Rate:	  1.0000
(null)
4
step	1
0
5.000000
0.000000
1
1
0.500000
2
step	2
1
5.000000
0.000000
1
1
2.000000
3
step	3
5
2.000000
0.000000
1
0
30
4
step	4
8
0.000000
0.000000
0
0
0.000000
0
2

File: P2-lacre guinner 02.txt
0
Diameter:	   5.00
   1.00
Area:	  19.6350
GaugeLength:	  50.00
2009-1-1
A3
001
DataNumber:	6462
index	Load(kN)	Defor(mm)	Stroke(mm)	Time(s)
    0	  0.0096	  0.0088	   0.009	   0.045
   28	  0.0108	  0.2387	   0.239	   1.445
   56	  0.0124	  0.4712	   0.471	   2.845
   84	  0.0120	  0.7050	   0.705	   4.245
  112	  0.0132	  0.9362	   0.936	   5.645
  140	  0.0148	  1.1700	   1.170	   7.045
  168	  0.0156	  1.4037	   1.404	   8.445
  196	  0.0160	  1.6387	   1.639	   9.845
  224	  0.0180	  1.8725	   1.872	  11.245
  252	  0.0188	  2.1063	   2.106	  12.645
  280	  0.0216	  2.3400	   2.340	  14.045
  308	  0.0232	  2.5750	   2.575	  15.445
  336	  0.0264	  2.8112	   2.811	  16.845
  364	  0.0288	  3.0450	   3.045	  18.245
  392	  0.0316	  3.2787	   3.279	  19.645
  420	  0.0352	  3.5125	   3.512	  21.045
  448	  0.0388	  3.7450	   3.745	  22.445
  476	  0.0428	  3.9787	   3.979	  23.845
  504	  0.0472	  4.2100	   4.210	  25.245
  532	  0.0524	  4.4437	   4.444	  26.645
  560	  0.0564	  4.6762	   4.676	  28.045
  588	  0.0612	  4.9113	   4.911	  29.445
  616	  0.0664	  5.1450	   5.145	  30.845
  644	  0.0728	  5.3787	   5.379	  32.245
  672	  0.0784	  5.6137	   5.614	  33.645
  700	  0.0840	  5.8487	   5.849	  35.045
  728	  0.0900	  6.0825	   6.082	  36.445
  756	  0.0960	  6.3175	   6.317	  37.845
  784	  0.1016	  6.5512	   6.551	  39.245
  812	  0.1084	  6.7862	   6.786	  40.645
  840	  0.1148	  7.0200	   7.020	  42.045
  868	  0.1204	  7.2537	   7.254	  43.445
  896	  0.1256	  7.4875	   7.487	  44.845
  924	  0.1332	  7.7213	   7.721	  46.245
  952	  0.1388	  7.9550	   7.955	  47.645
  980	  0.1456	  8.1888	   8.189	  49.045
 1008	  0.1516	  8.4212	   8.421	  50.445
 1036	  0.1564	  8.6550	   8.655	  51.845
 1064	  0.1636	  8.8900	   8.890	  53.245
 1092	  0.1696	  9.1237	   9.124	  54.645
 1120	  0.1740	  9.3587	   9.359	  56.045
 1148	  0.1800	  9.5925	   9.592	  57.445
 1176	  0.1844	  9.8275	   9.827	  58.845
 1204	  0.1896	 10.0625	  10.062	  60.245
 1232	  0.1944	 10.2975	  10.297	  61.645
 1260	  0.1988	 10.5312	  10.531	  63.045
 1288	  0.2040	 10.7662	  10.766	  64.445
 1316	  0.2088	 11.0000	  11.000	  65.845
 1344	  0.2132	 11.2337	  11.234	  67.245
 1372	  0.2176	 11.4662	  11.466	  68.645
 1400	  0.2224	 11.7000	  11.700	  70.045
 1428	  0.2272	 11.9325	  11.932	  71.445
 1456	  0.2300	 12.1650	  12.165	  72.845
 1484	  0.2344	 12.3987	  12.399	  74.245
 1512	  0.2384	 12.6325	  12.632	  75.645
 1540	  0.2420	 12.8663	  12.866	  77.045
 1568	  0.2468	 13.1012	  13.101	  78.445
 1596	  0.2496	 13.3362	  13.336	  79.845
 1624	  0.2532	 13.5700	  13.570	  81.245
 1652	  0.2556	 13.8038	  13.804	  82.645
 1680	  0.2588	 14.0387	  14.039	  84.045
 1708	  0.2616	 14.2725	  14.273	  85.445
 1736	  0.2660	 14.5075	  14.507	  86.845
 1764	  0.2684	 14.7425	  14.742	  88.245
 1792	  0.2716	 14.9762	  14.976	  89.645
 1820	  0.2736	 15.2100	  15.210	  91.045
 1848	  0.2776	 15.4437	  15.444	  92.445
 1876	  0.2800	 15.6762	  15.676	  93.845
 1904	  0.2824	 15.9100	  15.910	  95.245
 1932	  0.2852	 16.1425	  16.142	  96.645
 1960	  0.2872	 16.3762	  16.376	  98.045
 1988	  0.2908	 16.6100	  16.610	  99.445
 2016	  0.2936	 21.9412	  21.941	 100.845
 2044	  0.2964	 22.1750	  22.175	 102.245
 2072	  0.2972	 22.4087	  22.409	 103.645
 2100	  0.3016	 22.6425	  22.642	 105.045
 2128	  0.3028	 22.8762	  22.876	 106.445
 2156	  0.3048	 23.1100	  23.110	 107.845
 2184	  0.3076	 23.3450	  23.345	 109.245
 2212	  0.3096	 23.5800	  23.580	 110.645
 2240	  0.3116	 23.8150	  23.815	 112.045
 2268	  0.3144	 24.0500	  24.050	 113.445
 2296	  0.3160	 24.2837	  24.284	 114.845
 2324	  0.3180	 24.5187	  24.519	 116.245
 2352	  0.3208	 24.7537	  24.754	 117.645
 2380	  0.3228	 24.9862	  24.986	 119.045
 2408	  0.3240	 25.2188	  25.219	 120.445
 2436	  0.3272	 25.4525	  25.452	 121.845
 2464	  0.3284	 25.6875	  25.688	 123.245
 2492	  0.3292	 25.9200	  25.920	 124.645
 2520	  0.3308	 26.1537	  26.154	 126.045
 2548	  0.3324	 26.3875	  26.387	 127.445
 2576	  0.3344	 26.6213	  26.621	 128.845
 2604	  0.3364	 26.8550	  26.855	 130.245
 2632	  0.3384	 27.0887	  27.089	 131.645
 2660	  0.3400	 27.3225	  27.323	 133.045
 2688	  0.3420	 27.5562	  27.556	 134.445
 2716	  0.3440	 27.7925	  27.792	 135.845
 2744	  0.3456	 28.0275	  28.028	 137.245
 2772	  0.3464	 28.2625	  28.262	 138.645
 2800	  0.3484	 28.4963	  28.496	 140.045
 2828	  0.3500	 28.7312	  28.731	 141.445
 2856	  0.3504	 28.9650	  28.965	 142.845
 2884	  0.3516	 29.1975	  29.198	 144.245
 2912	  0.3540	 29.4312	  29.431	 145.645
 2940	  0.3556	 29.6637	  29.664	 147.045
 2968	  0.3580	 29.8975	  29.897	 148.445
 2996	  0.3580	 30.1312	  30.131	 149.845
 3024	  0.3596	 30.3637	  30.364	 151.245
 3052	  0.3612	 30.5975	  30.597	 152.645
 3080	  0.3620	 30.8312	  30.831	 154.045
 3108	  0.3640	 31.0662	  31.066	 155.445
 3136	  0.3660	 31.3000	  31.300	 156.845
 3164	  0.3668	 31.5337	  31.534	 158.245
 3192	  0.3684	 31.7675	  31.767	 159.645
 3220	  0.3692	 32.0025	  32.002	 161.045
 3248	  0.3712	 32.2375	  32.237	 162.445
 3276	  0.3728	 32.4712	  32.471	 163.845
 3304	  0.3744	 32.7062	  32.706	 165.245
 3332	  0.3748	 32.9400	  32.940	 166.645
 3360	  0.3768	 33.1750	  33.175	 168.045
 3388	  0.3772	 33.4075	  33.407	 169.445
 3416	  0.3772	 33.6413	  33.641	 170.845
 3444	  0.3796	 33.8762	  33.876	 172.245
 3472	  0.3804	 34.1100	  34.110	 173.645
 3500	  0.3816	 34.3438	  34.344	 175.045
 3528	  0.3824	 34.5775	  34.577	 176.445
 3556	  0.3832	 34.8112	  34.811	 177.845
 3584	  0.3864	 35.0425	  35.042	 179.245
 3612	  0.3860	 35.2762	  35.276	 180.645
 3640	  0.3868	 35.5112	  35.511	 182.045
 3668	  0.3888	 35.7450	  35.745	 183.445
 3696	  0.3896	 35.9813	  35.981	 184.845
 3724	  0.3916	 36.2150	  36.215	 186.245
 3752	  0.3908	 36.4500	  36.450	 187.645
 3780	  0.3924	 36.6838	  36.684	 189.045
 3808	  0.3940	 36.9175	  36.917	 190.445
 3836	  0.3948	 37.1512	  37.151	 191.845
 3864	  0.3948	 37.3850	  37.385	 193.245
 3892	  0.3960	 37.6187	  37.619	 194.645
 3920	  0.3968	 37.8525	  37.853	 196.045
 3948	  0.3980	 38.0863	  38.086	 197.445
 3976	  0.3988	 38.3200	  38.320	 198.845
 4004	  0.4008	 38.5525	  38.552	 200.245
 4032	  0.4012	 38.7850	  38.785	 201.645
 4060	  0.4020	 39.0187	  39.019	 203.045
 4088	  0.4028	 39.2525	  39.252	 204.445
 4116	  0.4040	 39.4862	  39.486	 205.845
 4144	  0.4044	 39.7212	  39.721	 207.245
 4172	  0.4048	 39.9550	  39.955	 208.645
 4200	  0.4060	 40.1887	  40.189	 210.045
 4228	  0.4068	 40.4237	  40.424	 211.445
 4256	  0.4072	 40.6587	  40.659	 212.845
 4284	  0.4080	 40.8925	  40.892	 214.245
 4312	  0.4084	 41.1262	  41.126	 215.645
 4340	  0.4088	 41.3600	  41.360	 217.045
 4368	  0.4092	 41.5938	  41.594	 218.445
 4396	  0.4116	 41.8275	  41.827	 219.845
 4424	  0.4116	 42.0612	  42.061	 221.245
 4452	  0.4120	 42.2950	  42.295	 222.645
 4480	  0.4132	 42.5275	  42.528	 224.045
 4508	  0.4144	 42.7600	  42.760	 225.445
 4536	  0.4156	 42.9937	  42.994	 226.845
 4564	  0.4160	 43.2275	  43.228	 228.245
 4592	  0.4160	 43.4613	  43.461	 229.645
 4620	  0.4168	 43.6937	  43.694	 231.045
 4648	  0.4172	 43.9275	  43.927	 232.445
 4676	  0.4184	 44.1625	  44.162	 233.845
 4704	  0.4192	 44.3975	  44.397	 235.245
 4732	  0.4188	 44.6325	  44.632	 236.645
 4760	  0.4204	 44.8675	  44.868	 238.045
 4788	  0.4212	 45.1012	  45.101	 239.445
 4816	  0.4228	 45.3350	  45.335	 240.845
 4844	  0.4236	 45.5700	  45.570	 242.245
 4872	  0.4236	 45.8037	  45.804	 243.645
 4900	  0.4240	 46.0375	  46.037	 245.045
 4928	  0.4248	 46.2700	  46.270	 246.445
 4956	  0.4264	 46.5037	  46.504	 247.845
 4984	  0.4260	 46.7362	  46.736	 249.245
 5012	  0.4276	 46.9700	  46.970	 250.645
 5040	  0.4276	 47.2012	  47.201	 252.045
 5068	  0.4284	 47.4350	  47.435	 253.445
 5096	  0.4288	 47.6700	  47.670	 254.845
 5124	  0.4296	 47.9050	  47.905	 256.245
 5152	  0.4296	 48.1400	  48.140	 257.645
 5180	  0.4304	 48.3750	  48.375	 259.045
 5208	  0.4316	 48.6087	  48.609	 260.445
 5236	  0.4316	 48.8438	  48.844	 261.845
 5264	  0.4328	 49.0775	  49.077	 263.245
 5292	  0.4328	 49.3125	  49.312	 264.645
 5320	  0.4340	 49.5462	  49.546	 266.045
 5348	  0.4340	 49.7800	  49.780	 267.445
 5376	  0.4340	 50.0137	  50.014	 268.845
 5404	  0.4348	 50.2475	  50.247	 270.245
 5432	  0.4352	 50.4800	  50.480	 271.645
 5460	  0.4360	 50.7137	  50.714	 273.045
 5488	  0.4372	 50.9475	  50.947	 274.445
 5516	  0.4372	 51.1800	  51.180	 275.845
 5544	  0.4380	 51.4137	  51.414	 277.245
 5572	  0.4384	 51.6488	  51.649	 278.645
 5600	  0.4384	 51.8825	  51.882	 280.045
 5628	  0.4396	 52.1162	  52.116	 281.445
 5656	  0.4392	 52.3512	  52.351	 282.845
 5684	  0.4400	 52.5850	  52.585	 284.245
 5712	  0.4408	 52.8200	  52.820	 285.645
 5740	  0.4412	 53.0550	  53.055	 287.045
 5768	  0.4412	 53.2887	  53.289	 288.445
 5796	  0.4428	 53.5238	  53.524	 289.845
 5824	  0.4424	 53.7575	  53.757	 291.245
 5852	  0.4432	 53.9925	  53.993	 292.645
 5880	  0.4424	 54.2262	  54.226	 294.045
 5908	  0.4432	 54.4587	  54.459	 295.445
 5936	  0.4452	 54.6925	  54.692	 296.845
 5964	  0.4456	 54.9263	  54.926	 298.245
 5992	  0.4460	 55.1587	  55.159	 299.645
 6020	  0.4460	 55.3925	  55.392	 301.045
 6048	  0.4460	 55.6262	  55.626	 302.445
 6076	  0.4464	 55.8600	  55.860	 303.845
 6104	  0.4464	 56.0950	  56.095	 305.245
 6132	  0.4472	 56.3288	  56.329	 306.645
 6160	  0.4476	 56.5637	  56.564	 308.045
 6188	  0.4492	 56.7975	  56.798	 309.445
 6216	  0.4492	 57.0325	  57.032	 310.845
 6244	  0.4488	 57.2663	  57.266	 312.245
 6272	  0.4488	 57.5000	  57.500	 313.645
 6300	  0.4492	 57.7350	  57.735	 315.045
 6328	  0.4488	 57.9700	  57.970	 316.445
 6356	  0.4480	 58.2037	  58.204	 317.845
 6384	  0.0020	 58.4387	  58.439	 319.245
 6412	  0.0016	 58.6712	  58.671	 320.645
 6440	  0.0012	 58.9050	  58.905	 322.045
 6461	  0.0012	 59.0800	  59.080	 323.095
ControlMode:	0
Rate:	 10.0000
(null)
4
step	1
0
5.000000
0.000000
1
1
0.500000
2
step	2
1
5.000000
0.000000
1
1
2.000000
3
step	3
5
2.000000
0.000000
1
0
30
4
step	4
8
0.000000
0.000000
0
0
0.000000
0
2