Folder: UFTM/Ensaio de tração/Dados - Tração (part 2)

File: P2-lacre omega 02.txt
0
Diameter:	   5.00
   1.00
Area:	  19.6350
GaugeLength:	  50.00
2009-1-1
A3
001
DataNumber:	3212
index	Load(kN)	Defor(mm)	Stroke(mm)	Time(s)
    0	  0.0100	  0.0088	   0.009	   0.045
   14	  0.0096	  0.1250	   0.125	   0.745
   28	  0.0112	  0.2425	   0.242	   1.445
   42	  0.0116	  0.3600	   0.360	   2.145
   56	  0.0120	  0.4762	   0.476	   2.845
   70	  0.0128	  0.5938	   0.594	   3.545
   84	  0.0136	  0.7113	   0.711	   4.245
   98	  0.0148	  0.8275	   0.827	   4.945
  112	  0.0152	  0.9450	   0.945	   5.645
  126	  0.0156	  1.0625	   1.062	   6.345
  140	  0.0168	  1.1800	   1.180	   7.045
  154	  0.0188	  1.2975	   1.298	   7.745
  168	  0.0192	  1.4137	   1.414	   8.445
  182	  0.0208	  1.5312	   1.531	   9.145
  196	  0.0228	  1.6487	   1.649	   9.845
  210	  0.0228	  1.7650	   1.765	  10.545
  224	  0.0248	  1.8825	   1.882	  11.245
  238	  0.0260	  2.0000	   2.000	  11.945
  252	  0.0276	  2.1163	   2.116	  12.645
  266	  0.0300	  2.2337	   2.234	  13.345
  280	  0.0320	  2.3500	   2.350	  14.045
  294	  0.0328	  2.4675	   2.467	  14.745
  308	  0.0352	  2.5838	   2.584	  15.445
  322	  0.0372	  2.7000	   2.700	  16.145
  336	  0.0388	  2.8175	   2.817	  16.845
  350	  0.0412	  2.9337	   2.934	  17.545
  364	  0.0436	  3.0512	   3.051	  18.245
  378	  0.0452	  3.1675	   3.168	  18.945
  392	  0.0480	  3.2837	   3.284	  19.645
  406	  0.0504	  3.4000	   3.400	  20.345
  420	  0.0520	  3.5175	   3.517	  21.045
  434	  0.0548	  3.6337	   3.634	  21.745
  448	  0.0564	  3.7513	   3.751	  22.445
  462	  0.0592	  3.8675	   3.867	  23.145
  476	  0.0620	  3.9850	   3.985	  23.845
  490	  0.0640	  4.1025	   4.102	  24.545
  504	  0.0676	  4.2188	   4.219	  25.245
  518	  0.0692	  4.3362	   4.336	  25.945
  532	  0.0712	  4.4538	   4.454	  26.645
  546	  0.0736	  4.5700	   4.570	  27.345
  560	  0.0748	  4.6875	   4.688	  28.045
  574	  0.0780	  4.8050	   4.805	  28.745
  588	  0.0796	  4.9225	   4.922	  29.445
  602	  0.0824	  5.0400	   5.040	  30.145
  616	  0.0844	  5.1575	   5.157	  30.845
  630	  0.0872	  5.2750	   5.275	  31.545
  644	  0.0888	  5.3925	   5.392	  32.245
  658	  0.0908	  5.5087	   5.509	  32.945
  672	  0.0940	  5.6262	   5.626	  33.645
  686	  0.0952	  5.7438	   5.744	  34.345
  700	  0.0976	  5.8612	   5.861	  35.045
  714	  0.0996	  5.9787	   5.979	  35.745
  728	  0.1012	  6.0963	   6.096	  36.445
  742	  0.1028	  6.2137	   6.214	  37.145
  756	  0.1052	  6.3300	   6.330	  37.845
  770	  0.1076	  6.4475	   6.447	  38.545
  784	  0.1096	  6.5650	   6.565	  39.245
  798	  0.1116	  6.6812	   6.681	  39.945
  812	  0.1128	  6.7975	   6.797	  40.645
  826	  0.1156	  6.9150	   6.915	  41.345
  840	  0.1164	  7.0312	   7.031	  42.045
  854	  0.1184	  7.1475	   7.148	  42.745
  868	  0.1196	  7.2650	   7.265	  43.445
  882	  0.1224	  7.3812	   7.381	  44.145
  896	  0.1252	  7.4987	   7.499	  44.845
  910	  0.1260	  7.6150	   7.615	  45.545
  924	  0.1280	  7.7312	   7.731	  46.245
  938	  0.1292	  7.8475	   7.847	  46.945
  952	  0.1312	  7.9650	   7.965	  47.645
  966	  0.1328	  8.0813	   8.081	  48.345
  980	  0.1336	  8.1987	   8.199	  49.045
  994	  0.1360	  8.3162	   8.316	  49.745
 1008	  0.1376	  8.4325	   8.432	  50.445
 1022	  0.1396	  8.5500	   8.550	  51.145
 1036	  0.1408	  8.6663	   8.666	  51.845
 1050	  0.1424	  8.7837	   8.784	  52.545
 1064	  0.1436	  8.9000	   8.900	  53.245
 1078	  0.1452	  9.0175	   9.017	  53.945
 1092	  0.1464	  9.1337	   9.134	  54.645
 1106	  0.1480	  9.2513	   9.251	  55.345
 1120	  0.1496	  9.3687	   9.369	  56.045
 1134	  0.1504	  9.4875	   9.488	  56.745
 1148	  0.1520	  9.6050	   9.605	  57.445
 1162	  0.1536	  9.7225	   9.722	  58.145
 1176	  0.1540	  9.8400	   9.840	  58.845
 1190	  0.1560	  9.9575	   9.957	  59.545
 1204	  0.1580	 10.0750	  10.075	  60.245
 1218	  0.1588	 10.1925	  10.193	  60.945
 1232	  0.1600	 10.3088	  10.309	  61.645
 1246	  0.1612	 10.4250	  10.425	  62.345
 1260	  0.1616	 10.5425	  10.542	  63.045
 1274	  0.1632	 10.6587	  10.659	  63.745
 1288	  0.1644	 10.7762	  10.776	  64.445
 1302	  0.1660	 10.8925	  10.892	  65.145
 1316	  0.1672	 11.0087	  11.009	  65.845
 1330	  0.1680	 11.1262	  11.126	  66.545
 1344	  0.1688	 11.2425	  11.242	  67.245
 1358	  0.1704	 11.3600	  11.360	  67.945
 1372	  0.1704	 11.4762	  11.476	  68.645
 1386	  0.1724	 11.5925	  11.592	  69.345
 1400	  0.1732	 11.7087	  11.709	  70.045
 1414	  0.1740	 11.8263	  11.826	  70.745
 1428	  0.1752	 11.9425	  11.943	  71.445
 1442	  0.1764	 12.0588	  12.059	  72.145
 1456	  0.1772	 12.1762	  12.176	  72.845
 1470	  0.1784	 12.2925	  12.292	  73.545
 1484	  0.1796	 12.4100	  12.410	  74.245
 1498	  0.1808	 12.5262	  12.526	  74.945
 1512	  0.1824	 12.6438	  12.644	  75.645
 1526	  0.1828	 12.7600	  12.760	  76.345
 1540	  0.1840	 12.8775	  12.877	  77.045
 1554	  0.1852	 12.9937	  12.994	  77.745
 1568	  0.1852	 13.1112	  13.111	  78.445
 1582	  0.1860	 13.2287	  13.229	  79.145
 1596	  0.1864	 13.3462	  13.346	  79.845
 1610	  0.1880	 13.4637	  13.464	  80.545
 1624	  0.1888	 13.5812	  13.581	  81.245
 1638	  0.1896	 13.6987	  13.699	  81.945
 1652	  0.1904	 13.8150	  13.815	  82.645
 1666	  0.1908	 13.9325	  13.932	  83.345
 1680	  0.1924	 14.0500	  14.050	  84.045
 1694	  0.1940	 14.1675	  14.167	  84.745
 1708	  0.1944	 14.2837	  14.284	  85.445
 1722	  0.1956	 14.4012	  14.401	  86.145
 1736	  0.1956	 14.5175	  14.517	  86.845
 1750	  0.1956	 14.6350	  14.635	  87.545
 1764	  0.1972	 14.7525	  14.752	  88.245
 1778	  0.1984	 14.8700	  14.870	  88.945
 1792	  0.1988	 14.9862	  14.986	  89.645
 1806	  0.2000	 15.1037	  15.104	  90.345
 1820	  0.2000	 15.2200	  15.220	  91.045
 1834	  0.2012	 15.3375	  15.337	  91.745
 1848	  0.2024	 15.4537	  15.454	  92.445
 1862	  0.2028	 15.5712	  15.571	  93.145
 1876	  0.2024	 15.6875	  15.688	  93.845
 1890	  0.2028	 15.8050	  15.805	  94.545
 1904	  0.2040	 15.9212	  15.921	  95.245
 1918	  0.2040	 16.0387	  16.039	  95.945
 1932	  0.2048	 16.1550	  16.155	  96.645
 1946	  0.2064	 16.2725	  16.272	  97.345
 1960	  0.2064	 16.3900	  16.390	  98.045
 1974	  0.2072	 16.5063	  16.506	  98.745
 1988	  0.2088	 16.6237	  16.624	  99.445
 2002	  0.2092	 16.7400	  16.740	 100.145
 2016	  0.2100	 16.8575	  16.858	 100.845
 2030	  0.2104	 16.9750	  16.975	 101.545
 2044	  0.2104	 17.0925	  17.092	 102.245
 2058	  0.2112	 17.2087	  17.209	 102.945
 2072	  0.2112	 17.3263	  17.326	 103.645
 2086	  0.2124	 17.4425	  17.442	 104.345
 2100	  0.2136	 17.5600	  17.560	 105.045
 2114	  0.2140	 17.6775	  17.677	 105.745
 2128	  0.2148	 17.7950	  17.795	 106.445
 2142	  0.2148	 17.9112	  17.911	 107.145
 2156	  0.2156	 18.0287	  18.029	 107.845
 2170	  0.2172	 18.1462	  18.146	 108.545
 2184	  0.2172	 18.2625	  18.262	 109.245
 2198	  0.2180	 18.3800	  18.380	 109.945
 2212	  0.2188	 18.4975	  18.497	 110.645
 2226	  0.2192	 18.6138	  18.614	 111.345
 2240	  0.2200	 18.7312	  18.731	 112.045
 2254	  0.2196	 18.8475	  18.847	 112.745
 2268	  0.2208	 18.9650	  18.965	 113.445
 2282	  0.2220	 19.0812	  19.081	 114.145
 2296	  0.2220	 19.1975	  19.198	 114.845
 2310	  0.2224	 19.3150	  19.315	 115.545
 2324	  0.2236	 19.4325	  19.432	 116.245
 2338	  0.2240	 19.5475	  19.547	 116.945
 2352	  0.2252	 19.6650	  19.665	 117.645
 2366	  0.2248	 19.7825	  19.782	 118.345
 2380	  0.2256	 19.8988	  19.899	 119.045
 2394	  0.2264	 20.0162	  20.016	 119.745
 2408	  0.2272	 20.1325	  20.132	 120.445
 2422	  0.2264	 20.2487	  20.249	 121.145
 2436	  0.2280	 20.3650	  20.365	 121.845
 2450	  0.2292	 20.4825	  20.483	 122.545
 2464	  0.2292	 20.5987	  20.599	 123.245
 2478	  0.2292	 20.7162	  20.716	 123.945
 2492	  0.2304	 20.8325	  20.833	 124.645
 2506	  0.2296	 20.9500	  20.950	 125.345
 2520	  0.2308	 21.0662	  21.066	 126.045
 2534	  0.2320	 21.1838	  21.184	 126.745
 2548	  0.2324	 21.3013	  21.301	 127.445
 2562	  0.2332	 21.4175	  21.417	 128.145
 2576	  0.2336	 21.5350	  21.535	 128.845
 2590	  0.2336	 21.6525	  21.653	 129.545
 2604	  0.2348	 21.7700	  21.770	 130.245
 2618	  0.2348	 21.8875	  21.887	 130.945
 2632	  0.2356	 22.0037	  22.004	 131.645
 2646	  0.2352	 22.1213	  22.121	 132.345
 2660	  0.2360	 22.2387	  22.239	 133.045
 2674	  0.2356	 22.3562	  22.356	 133.745
 2688	  0.2368	 22.4725	  22.472	 134.445
 2702	  0.2364	 22.5900	  22.590	 135.145
 2716	  0.2380	 22.7075	  22.707	 135.845
 2730	  0.2372	 22.8237	  22.824	 136.545
 2744	  0.2392	 22.9412	  22.941	 137.245
 2758	  0.2384	 23.0588	  23.059	 137.945
 2772	  0.2392	 23.1737	  23.174	 138.645
 2786	  0.2400	 23.2913	  23.291	 139.345
 2800	  0.2404	 23.4075	  23.407	 140.045
 2814	  0.2404	 23.5238	  23.524	 140.745
 2828	  0.2404	 23.6412	  23.641	 141.445
 2842	  0.2404	 23.7575	  23.757	 142.145
 2856	  0.2412	 23.8737	  23.874	 142.845
 2870	  0.2416	 23.9912	  23.991	 143.545
 2884	  0.2424	 24.1075	  24.108	 144.245
 2898	  0.2428	 24.2250	  24.225	 144.945
 2912	  0.2436	 24.3412	  24.341	 145.645
 2926	  0.2444	 24.4575	  24.457	 146.345
 2940	  0.2436	 24.5750	  24.575	 147.045
 2954	  0.2436	 24.6912	  24.691	 147.745
 2968	  0.2444	 24.8088	  24.809	 148.445
 2982	  0.2444	 24.9250	  24.925	 149.145
 2996	  0.2452	 25.0425	  25.042	 149.845
 3010	  0.2456	 25.1600	  25.160	 150.545
 3024	  0.2456	 25.2775	  25.278	 151.245
 3038	  0.2460	 25.3950	  25.395	 151.945
 3052	  0.2460	 25.5112	  25.511	 152.645
 3066	  0.2460	 25.6287	  25.629	 153.345
 3080	  0.2464	 25.7463	  25.746	 154.045
 3094	  0.2464	 25.8650	  25.865	 154.745
 3108	  0.2468	 25.9825	  25.983	 155.445
 3122	  0.2468	 26.1000	  26.100	 156.145
 3136	  0.2476	 26.2175	  26.217	 156.845
 3150	  0.2468	 26.3337	  26.334	 157.545
 3164	  0.2472	 26.4513	  26.451	 158.245
 3178	  0.0016	 26.5687	  26.569	 158.945
 3192	  0.0016	 26.6862	  26.686	 159.645
 3206	  0.0020	 26.8025	  26.802	 160.345
 3211	  0.0020	 26.8450	  26.845	 160.595
ControlMode:	0
Rate:	 10.0000
(null)
4
step	1
0
5.000000
0.000000
1
1
0.500000
2
step	2
1
5.000000
0.000000
1
1
2.000000
3
step	3
5
2.000000
0.000000
1
0
30
4
step	4
8
0.000000
0.000000
0
0
0.000000
0
2