Folder: UFTM/Dados - Tração (part 2)

File: P2-lacre pratic 01.txt
0
Diameter:	   5.00
   1.00
Area:	  19.6350
GaugeLength:	  50.00
2009-1-1
A3
001
DataNumber:	3117
index	Load(kN)	Defor(mm)	Stroke(mm)	Time(s)
    0	  0.0096	  0.0088	   0.009	   0.045
   14	  0.0100	  0.1250	   0.125	   0.745
   28	  0.0108	  0.2425	   0.242	   1.445
   42	  0.0120	  0.3587	   0.359	   2.145
   56	  0.0124	  0.4750	   0.475	   2.845
   70	  0.0128	  0.5925	   0.592	   3.545
   84	  0.0132	  0.7088	   0.709	   4.245
   98	  0.0148	  0.8250	   0.825	   4.945
  112	  0.0152	  0.9425	   0.942	   5.645
  126	  0.0164	  1.0588	   1.059	   6.345
  140	  0.0176	  1.1762	   1.176	   7.045
  154	  0.0188	  1.2925	   1.293	   7.745
  168	  0.0200	  1.4100	   1.410	   8.445
  182	  0.0212	  1.5263	   1.526	   9.145
  196	  0.0228	  1.6437	   1.644	   9.845
  210	  0.0236	  1.7600	   1.760	  10.545
  224	  0.0256	  1.8775	   1.877	  11.245
  238	  0.0264	  1.9937	   1.994	  11.945
  252	  0.0276	  2.1112	   2.111	  12.645
  266	  0.0292	  2.2287	   2.229	  13.345
  280	  0.0320	  2.3463	   2.346	  14.045
  294	  0.0324	  2.4637	   2.464	  14.745
  308	  0.0336	  2.5825	   2.582	  15.445
  322	  0.0356	  2.7000	   2.700	  16.145
  336	  0.0384	  2.8175	   2.817	  16.845
  350	  0.0408	  2.9337	   2.934	  17.545
  364	  0.0420	  3.0525	   3.053	  18.245
  378	  0.0448	  3.1688	   3.169	  18.945
  392	  0.0468	  3.2862	   3.286	  19.645
  406	  0.0488	  3.4025	   3.402	  20.345
  420	  0.0504	  3.5200	   3.520	  21.045
  434	  0.0516	  3.6363	   3.636	  21.745
  448	  0.0564	  3.7525	   3.752	  22.445
  462	  0.0588	  3.8700	   3.870	  23.145
  476	  0.0612	  3.9862	   3.986	  23.845
  490	  0.0632	  4.1025	   4.102	  24.545
  504	  0.0664	  4.2200	   4.220	  25.245
  518	  0.0688	  4.3362	   4.336	  25.945
  532	  0.0704	  4.4525	   4.452	  26.645
  546	  0.0732	  4.5700	   4.570	  27.345
  560	  0.0748	  4.6862	   4.686	  28.045
  574	  0.0772	  4.8025	   4.802	  28.745
  588	  0.0800	  4.9200	   4.920	  29.445
  602	  0.0820	  5.0363	   5.036	  30.145
  616	  0.0844	  5.1525	   5.152	  30.845
  630	  0.0860	  5.2700	   5.270	  31.545
  644	  0.0884	  5.3875	   5.387	  32.245
  658	  0.0908	  5.5037	   5.504	  32.945
  672	  0.0932	  5.6212	   5.621	  33.645
  686	  0.0940	  5.7387	   5.739	  34.345
  700	  0.0964	  5.8550	   5.855	  35.045
  714	  0.0992	  5.9725	   5.972	  35.745
  728	  0.1008	  6.0900	   6.090	  36.445
  742	  0.1024	  6.2062	   6.206	  37.145
  756	  0.1040	  6.3238	   6.324	  37.845
  770	  0.1072	  6.4425	   6.442	  38.545
  784	  0.1088	  6.5587	   6.559	  39.245
  798	  0.1116	  6.6762	   6.676	  39.945
  812	  0.1132	  6.7937	   6.794	  40.645
  826	  0.1156	  6.9112	   6.911	  41.345
  840	  0.1164	  7.0275	   7.027	  42.045
  854	  0.1184	  7.1450	   7.145	  42.745
  868	  0.1192	  7.2625	   7.262	  43.445
  882	  0.1212	  7.3787	   7.379	  44.145
  896	  0.1236	  7.4962	   7.496	  44.845
  910	  0.1236	  7.6125	   7.612	  45.545
  924	  0.1252	  7.7300	   7.730	  46.245
  938	  0.1268	  7.8475	   7.847	  46.945
  952	  0.1284	  7.9637	   7.964	  47.645
  966	  0.1300	  8.0813	   8.081	  48.345
  980	  0.1316	  8.1975	   8.198	  49.045
  994	  0.1328	  8.3150	   8.315	  49.745
 1008	  0.1348	  8.4325	   8.432	  50.445
 1022	  0.1360	  8.5487	   8.549	  51.145
 1036	  0.1372	  8.6663	   8.666	  51.845
 1050	  0.1380	  8.7825	   8.783	  52.545
 1064	  0.1408	  8.9000	   8.900	  53.245
 1078	  0.1420	  9.0162	   9.016	  53.945
 1092	  0.1420	  9.1337	   9.134	  54.645
 1106	  0.1440	  9.2500	   9.250	  55.345
 1120	  0.1452	  9.3675	   9.367	  56.045
 1134	  0.1460	  9.4850	   9.485	  56.745
 1148	  0.1472	  9.6012	   9.601	  57.445
 1162	  0.1488	  9.7188	   9.719	  58.145
 1176	  0.1500	  9.8362	   9.836	  58.845
 1190	  0.1508	  9.9525	   9.952	  59.545
 1204	  0.1520	 10.0700	  10.070	  60.245
 1218	  0.1528	 10.1862	  10.186	  60.945
 1232	  0.1536	 10.3025	  10.302	  61.645
 1246	  0.1552	 10.4200	  10.420	  62.345
 1260	  0.1560	 10.5375	  10.537	  63.045
 1274	  0.1572	 10.6550	  10.655	  63.745
 1288	  0.1576	 10.7725	  10.773	  64.445
 1302	  0.1584	 10.8888	  10.889	  65.145
 1316	  0.1604	 11.0062	  11.006	  65.845
 1330	  0.1612	 11.1237	  11.124	  66.545
 1344	  0.1616	 11.2413	  11.241	  67.245
 1358	  0.1628	 11.3575	  11.358	  67.945
 1372	  0.1628	 11.4750	  11.475	  68.645
 1386	  0.1640	 11.5925	  11.592	  69.345
 1400	  0.1648	 11.7087	  11.709	  70.045
 1414	  0.1668	 11.8250	  11.825	  70.745
 1428	  0.1660	 11.9425	  11.943	  71.445
 1442	  0.1680	 12.0588	  12.059	  72.145
 1456	  0.1676	 12.1762	  12.176	  72.845
 1470	  0.1684	 12.2925	  12.292	  73.545
 1484	  0.1704	 12.4100	  12.410	  74.245
 1498	  0.1708	 12.5275	  12.528	  74.945
 1512	  0.1716	 12.6438	  12.644	  75.645
 1526	  0.1712	 12.7612	  12.761	  76.345
 1540	  0.1728	 12.8787	  12.879	  77.045
 1554	  0.1736	 12.9950	  12.995	  77.745
 1568	  0.1736	 13.1125	  13.112	  78.445
 1582	  0.1752	 13.2287	  13.229	  79.145
 1596	  0.1748	 13.3450	  13.345	  79.845
 1610	  0.1752	 13.4612	  13.461	  80.545
 1624	  0.1756	 13.5775	  13.577	  81.245
 1638	  0.1764	 13.6950	  13.695	  81.945
 1652	  0.1780	 13.8112	  13.811	  82.645
 1666	  0.1780	 13.9288	  13.929	  83.345
 1680	  0.1796	 14.0462	  14.046	  84.045
 1694	  0.1804	 14.1625	  14.162	  84.745
 1708	  0.1812	 14.2800	  14.280	  85.445
 1722	  0.1800	 14.3962	  14.396	  86.145
 1736	  0.1804	 14.5138	  14.514	  86.845
 1750	  0.1816	 14.6312	  14.631	  87.545
 1764	  0.1824	 14.7487	  14.749	  88.245
 1778	  0.1840	 14.8663	  14.866	  88.945
 1792	  0.1840	 14.9825	  14.983	  89.645
 1806	  0.1844	 15.1000	  15.100	  90.345
 1820	  0.1852	 15.2175	  15.217	  91.045
 1834	  0.1852	 15.3350	  15.335	  91.745
 1848	  0.1856	 15.4525	  15.452	  92.445
 1862	  0.1872	 15.5687	  15.569	  93.145
 1876	  0.1872	 15.6862	  15.686	  93.845
 1890	  0.1884	 15.8038	  15.804	  94.545
 1904	  0.1880	 15.9200	  15.920	  95.245
 1918	  0.1884	 16.0375	  16.038	  95.945
 1932	  0.1896	 16.1537	  16.154	  96.645
 1946	  0.1900	 16.2712	  16.271	  97.345
 1960	  0.1904	 16.3875	  16.387	  98.045
 1974	  0.1912	 16.5050	  16.505	  98.745
 1988	  0.1924	 16.6213	  16.621	  99.445
 2002	  0.1924	 16.7375	  16.737	 100.145
 2016	  0.1924	 16.8550	  16.855	 100.845
 2030	  0.1932	 16.9713	  16.971	 101.545
 2044	  0.1936	 17.0887	  17.089	 102.245
 2058	  0.1928	 17.2050	  17.205	 102.945
 2072	  0.1944	 17.3212	  17.321	 103.645
 2086	  0.1944	 17.4387	  17.439	 104.345
 2100	  0.1948	 17.5550	  17.555	 105.045
 2114	  0.1960	 17.6712	  17.671	 105.745
 2128	  0.1964	 17.7887	  17.789	 106.445
 2142	  0.1956	 17.9062	  17.906	 107.145
 2156	  0.1964	 18.0225	  18.022	 107.845
 2170	  0.1980	 18.1400	  18.140	 108.545
 2184	  0.1976	 18.2575	  18.257	 109.245
 2198	  0.1980	 18.3750	  18.375	 109.945
 2212	  0.2000	 18.4925	  18.493	 110.645
 2226	  0.1992	 18.6100	  18.610	 111.345
 2240	  0.2000	 18.7275	  18.727	 112.045
 2254	  0.2004	 18.8450	  18.845	 112.745
 2268	  0.2004	 18.9625	  18.962	 113.445
 2282	  0.2004	 19.0800	  19.080	 114.145
 2296	  0.2004	 19.1975	  19.198	 114.845
 2310	  0.2008	 19.3150	  19.315	 115.545
 2324	  0.2020	 19.4325	  19.432	 116.245
 2338	  0.2020	 19.5487	  19.549	 116.945
 2352	  0.2028	 19.6663	  19.666	 117.645
 2366	  0.2028	 19.7837	  19.784	 118.345
 2380	  0.2040	 19.8988	  19.899	 119.045
 2394	  0.2040	 20.0162	  20.016	 119.745
 2408	  0.2040	 20.1325	  20.132	 120.445
 2422	  0.2044	 20.2500	  20.250	 121.145
 2436	  0.2044	 20.3675	  20.368	 121.845
 2450	  0.2060	 20.4837	  20.484	 122.545
 2464	  0.2056	 20.6000	  20.600	 123.245
 2478	  0.2068	 20.7175	  20.717	 123.945
 2492	  0.2068	 20.8337	  20.834	 124.645
 2506	  0.2072	 20.9500	  20.950	 125.345
 2520	  0.2076	 21.0675	  21.067	 126.045
 2534	  0.2080	 21.1838	  21.184	 126.745
 2548	  0.2084	 21.3000	  21.300	 127.445
 2562	  0.2084	 21.4163	  21.416	 128.145
 2576	  0.2084	 21.5325	  21.532	 128.845
 2590	  0.2092	 21.6500	  21.650	 129.545
 2604	  0.2104	 21.7662	  21.766	 130.245
 2618	  0.2100	 21.8825	  21.882	 130.945
 2632	  0.2104	 22.0000	  22.000	 131.645
 2646	  0.2108	 22.1162	  22.116	 132.345
 2660	  0.2108	 22.2337	  22.234	 133.045
 2674	  0.2116	 22.3512	  22.351	 133.745
 2688	  0.2112	 22.4688	  22.469	 134.445
 2702	  0.2120	 22.5863	  22.586	 135.145
 2716	  0.2128	 22.7025	  22.702	 135.845
 2730	  0.2132	 22.8200	  22.820	 136.545
 2744	  0.2140	 22.9375	  22.938	 137.245
 2758	  0.2136	 23.0550	  23.055	 137.945
 2772	  0.2132	 23.1725	  23.172	 138.645
 2786	  0.2136	 23.2887	  23.289	 139.345
 2800	  0.2136	 23.4062	  23.406	 140.045
 2814	  0.2148	 23.5238	  23.524	 140.745
 2828	  0.2148	 23.6400	  23.640	 141.445
 2842	  0.2152	 23.7575	  23.757	 142.145
 2856	  0.2164	 23.8750	  23.875	 142.845
 2870	  0.2164	 23.9912	  23.991	 143.545
 2884	  0.2156	 24.1087	  24.109	 144.245
 2898	  0.2164	 24.2262	  24.226	 144.945
 2912	  0.2168	 24.3425	  24.342	 145.645
 2926	  0.2172	 24.4600	  24.460	 146.345
 2940	  0.2172	 24.5763	  24.576	 147.045
 2954	  0.2176	 24.6925	  24.692	 147.745
 2968	  0.2176	 24.8100	  24.810	 148.445
 2982	  0.2176	 24.9262	  24.926	 149.145
 2996	  0.2168	 25.0425	  25.042	 149.845
 3010	  0.2176	 25.1575	  25.157	 150.545
 3024	  0.2176	 25.2738	  25.274	 151.245
 3038	  0.2172	 25.3912	  25.391	 151.945
 3052	  0.2172	 25.5075	  25.507	 152.645
 3066	  0.2152	 25.6250	  25.625	 153.345
 3080	  0.0008	 25.7412	  25.741	 154.045
 3094	  0.0004	 25.8575	  25.858	 154.745
 3108	  0.0000	 25.9737	  25.974	 155.445
 3116	  0.0004	 26.0413	  26.041	 155.845
ControlMode:	0
Rate:	 10.0000
(null)
4
step	1
0
5.000000
0.000000
1
1
0.500000
2
step	2
1
5.000000
0.000000
1
1
2.000000
3
step	3
5
2.000000
0.000000
1
0
30
4
step	4
8
0.000000
0.000000
0
0
0.000000
0
2

File: P2-lacre pratic 02.txt
0
Diameter:	   5.00
   1.00
Area:	  19.6350
GaugeLength:	  50.00
2009-1-1
A3
001
DataNumber:	3009
index	Load(kN)	Defor(mm)	Stroke(mm)	Time(s)
    0	  0.0100	  0.0088	   0.009	   0.045
   13	  0.0096	  0.1175	   0.117	   0.695
   26	  0.0100	  0.2262	   0.226	   1.345
   39	  0.0108	  0.3350	   0.335	   1.995
   52	  0.0116	  0.4437	   0.444	   2.645
   65	  0.0116	  0.5525	   0.553	   3.295
   78	  0.0132	  0.6600	   0.660	   3.945
   91	  0.0140	  0.7688	   0.769	   4.595
  104	  0.0140	  0.8775	   0.877	   5.245
  117	  0.0160	  0.9850	   0.985	   5.895
  130	  0.0160	  1.0938	   1.094	   6.545
  143	  0.0168	  1.2025	   1.202	   7.195
  156	  0.0184	  1.3112	   1.311	   7.845
  169	  0.0188	  1.4187	   1.419	   8.495
  182	  0.0196	  1.5275	   1.527	   9.145
  195	  0.0208	  1.6363	   1.636	   9.795
  208	  0.0212	  1.7437	   1.744	  10.445
  221	  0.0232	  1.8525	   1.852	  11.095
  234	  0.0248	  1.9612	   1.961	  11.745
  247	  0.0264	  2.0700	   2.070	  12.395
  260	  0.0268	  2.1788	   2.179	  13.045
  273	  0.0292	  2.2862	   2.286	  13.695
  286	  0.0304	  2.3950	   2.395	  14.345
  299	  0.0324	  2.5037	   2.504	  14.995
  312	  0.0344	  2.6125	   2.612	  15.645
  325	  0.0368	  2.7213	   2.721	  16.295
  338	  0.0388	  2.8287	   2.829	  16.945
  351	  0.0388	  2.9388	   2.939	  17.595
  364	  0.0416	  3.0450	   3.045	  18.245
  377	  0.0436	  3.1550	   3.155	  18.895
  390	  0.0452	  3.2637	   3.264	  19.545
  403	  0.0476	  3.3725	   3.372	  20.195
  416	  0.0500	  3.4825	   3.482	  20.845
  429	  0.0524	  3.5912	   3.591	  21.495
  442	  0.0540	  3.7012	   3.701	  22.145
  455	  0.0560	  3.8100	   3.810	  22.795
  468	  0.0580	  3.9187	   3.919	  23.445
  481	  0.0604	  4.0275	   4.027	  24.095
  494	  0.0616	  4.1363	   4.136	  24.745
  507	  0.0644	  4.2450	   4.245	  25.395
  520	  0.0672	  4.3537	   4.354	  26.045
  533	  0.0696	  4.4625	   4.463	  26.695
  546	  0.0708	  4.5700	   4.570	  27.345
  559	  0.0732	  4.6788	   4.679	  27.995
  572	  0.0752	  4.7875	   4.787	  28.645
  585	  0.0772	  4.8950	   4.895	  29.295
  598	  0.0792	  5.0037	   5.004	  29.945
  611	  0.0808	  5.1112	   5.111	  30.595
  624	  0.0828	  5.2200	   5.220	  31.245
  637	  0.0848	  5.3287	   5.329	  31.895
  650	  0.0872	  5.4375	   5.438	  32.545
  663	  0.0892	  5.5450	   5.545	  33.195
  676	  0.0916	  5.6537	   5.654	  33.845
  689	  0.0936	  5.7625	   5.762	  34.495
  702	  0.0952	  5.8700	   5.870	  35.145
  715	  0.0976	  5.9787	   5.979	  35.795
  728	  0.0988	  6.0875	   6.088	  36.445
  741	  0.1012	  6.1962	   6.196	  37.095
  754	  0.1032	  6.3050	   6.305	  37.745
  767	  0.1040	  6.4137	   6.414	  38.395
  780	  0.1068	  6.5225	   6.523	  39.045
  793	  0.1092	  6.6312	   6.631	  39.695
  806	  0.1104	  6.7400	   6.740	  40.345
  819	  0.1120	  6.8487	   6.849	  40.995
  832	  0.1148	  6.9575	   6.957	  41.645
  845	  0.1156	  7.0662	   7.066	  42.295
  858	  0.1172	  7.1737	   7.174	  42.945
  871	  0.1188	  7.2838	   7.284	  43.595
  884	  0.1200	  7.3925	   7.392	  44.245
  897	  0.1220	  7.5012	   7.501	  44.895
  910	  0.1236	  7.6112	   7.611	  45.545
  923	  0.1248	  7.7200	   7.720	  46.195
  936	  0.1260	  7.8287	   7.829	  46.845
  949	  0.1280	  7.9375	   7.938	  47.495
  962	  0.1296	  8.0462	   8.046	  48.145
  975	  0.1296	  8.1550	   8.155	  48.795
  988	  0.1320	  8.2625	   8.262	  49.445
 1001	  0.1332	  8.3725	   8.372	  50.095
 1014	  0.1352	  8.4812	   8.481	  50.745
 1027	  0.1360	  8.5887	   8.589	  51.395
 1040	  0.1372	  8.6975	   8.698	  52.045
 1053	  0.1384	  8.8062	   8.806	  52.695
 1066	  0.1396	  8.9150	   8.915	  53.345
 1079	  0.1404	  9.0237	   9.024	  53.995
 1092	  0.1416	  9.1325	   9.132	  54.645
 1105	  0.1428	  9.2413	   9.241	  55.295
 1118	  0.1432	  9.3500	   9.350	  55.945
 1131	  0.1444	  9.4587	   9.459	  56.595
 1144	  0.1456	  9.5662	   9.566	  57.245
 1157	  0.1468	  9.6750	   9.675	  57.895
 1170	  0.1488	  9.7837	   9.784	  58.545
 1183	  0.1492	  9.8925	   9.892	  59.195
 1196	  0.1492	 10.0012	  10.001	  59.845
 1209	  0.1504	 10.1100	  10.110	  60.495
 1222	  0.1516	 10.2188	  10.219	  61.145
 1235	  0.1536	 10.3275	  10.327	  61.795
 1248	  0.1536	 10.4350	  10.435	  62.445
 1261	  0.1548	 10.5437	  10.544	  63.095
 1274	  0.1564	 10.6525	  10.653	  63.745
 1287	  0.1576	 10.7612	  10.761	  64.395
 1300	  0.1572	 10.8700	  10.870	  65.045
 1313	  0.1596	 10.9788	  10.979	  65.695
 1326	  0.1604	 11.0875	  11.087	  66.345
 1339	  0.1616	 11.1962	  11.196	  66.995
 1352	  0.1624	 11.3062	  11.306	  67.645
 1365	  0.1620	 11.4137	  11.414	  68.295
 1378	  0.1624	 11.5237	  11.524	  68.945
 1391	  0.1632	 11.6325	  11.632	  69.595
 1404	  0.1644	 11.7413	  11.741	  70.245
 1417	  0.1656	 11.8500	  11.850	  70.895
 1430	  0.1668	 11.9587	  11.959	  71.545
 1443	  0.1680	 12.0675	  12.068	  72.195
 1456	  0.1684	 12.1762	  12.176	  72.845
 1469	  0.1692	 12.2850	  12.285	  73.495
 1482	  0.1696	 12.3938	  12.394	  74.145
 1495	  0.1708	 12.5025	  12.502	  74.795
 1508	  0.1716	 12.6112	  12.611	  75.445
 1521	  0.1724	 12.7200	  12.720	  76.095
 1534	  0.1724	 12.8287	  12.829	  76.745
 1547	  0.1724	 12.9362	  12.936	  77.395
 1560	  0.1744	 13.0450	  13.045	  78.045
 1573	  0.1748	 13.1537	  13.154	  78.695
 1586	  0.1748	 13.2625	  13.262	  79.345
 1599	  0.1756	 13.3713	  13.371	  79.995
 1612	  0.1768	 13.4800	  13.480	  80.645
 1625	  0.1772	 13.5875	  13.587	  81.295
 1638	  0.1772	 13.6975	  13.697	  81.945
 1651	  0.1784	 13.8062	  13.806	  82.595
 1664	  0.1796	 13.9137	  13.914	  83.245
 1677	  0.1808	 14.0212	  14.021	  83.895
 1690	  0.1800	 14.1300	  14.130	  84.545
 1703	  0.1812	 14.2375	  14.237	  85.195
 1716	  0.1820	 14.3462	  14.346	  85.845
 1729	  0.1828	 14.4550	  14.455	  86.495
 1742	  0.1832	 14.5625	  14.562	  87.145
 1755	  0.1844	 14.6712	  14.671	  87.795
 1768	  0.1848	 14.7800	  14.780	  88.445
 1781	  0.1848	 14.8888	  14.889	  89.095
 1794	  0.1856	 14.9975	  14.997	  89.745
 1807	  0.1852	 15.1062	  15.106	  90.395
 1820	  0.1864	 15.2137	  15.214	  91.045
 1833	  0.1868	 15.3225	  15.322	  91.695
 1846	  0.1876	 15.4325	  15.432	  92.345
 1859	  0.1880	 15.5412	  15.541	  92.995
 1872	  0.1888	 15.6500	  15.650	  93.645
 1885	  0.1900	 15.7587	  15.759	  94.295
 1898	  0.1892	 15.8675	  15.867	  94.945
 1911	  0.1896	 15.9762	  15.976	  95.595
 1924	  0.1908	 16.0850	  16.085	  96.245
 1937	  0.1908	 16.1938	  16.194	  96.895
 1950	  0.1912	 16.3025	  16.302	  97.545
 1963	  0.1916	 16.4112	  16.411	  98.195
 1976	  0.1928	 16.5200	  16.520	  98.845
 1989	  0.1928	 16.6287	  16.629	  99.495
 2002	  0.1940	 16.7375	  16.737	 100.145
 2015	  0.1944	 16.8450	  16.845	 100.795
 2028	  0.1948	 16.9537	  16.954	 101.445
 2041	  0.1964	 17.0625	  17.062	 102.095
 2054	  0.1952	 17.1712	  17.171	 102.745
 2067	  0.1968	 17.2800	  17.280	 103.395
 2080	  0.1964	 17.3888	  17.389	 104.045
 2093	  0.1976	 17.4963	  17.496	 104.695
 2106	  0.1968	 17.6050	  17.605	 105.345
 2119	  0.1980	 17.7137	  17.714	 105.995
 2132	  0.1968	 17.8212	  17.821	 106.645
 2145	  0.1980	 17.9300	  17.930	 107.295
 2158	  0.1996	 18.0387	  18.039	 107.945
 2171	  0.1996	 18.1462	  18.146	 108.595
 2184	  0.2000	 18.2550	  18.255	 109.245
 2197	  0.2004	 18.3638	  18.364	 109.895
 2210	  0.2012	 18.4713	  18.471	 110.545
 2223	  0.2016	 18.5800	  18.580	 111.195
 2236	  0.2016	 18.6887	  18.689	 111.845
 2249	  0.2020	 18.7975	  18.797	 112.495
 2262	  0.2016	 18.9062	  18.906	 113.145
 2275	  0.2028	 19.0150	  19.015	 113.795
 2288	  0.2024	 19.1237	  19.124	 114.445
 2301	  0.2032	 19.2325	  19.233	 115.095
 2314	  0.2044	 19.3425	  19.342	 115.745
 2327	  0.2044	 19.4513	  19.451	 116.395
 2340	  0.2056	 19.5600	  19.560	 117.045
 2353	  0.2048	 19.6687	  19.669	 117.695
 2366	  0.2052	 19.7787	  19.779	 118.345
 2379	  0.2052	 19.8862	  19.886	 118.995
 2392	  0.2060	 19.9950	  19.995	 119.645
 2405	  0.2060	 20.1050	  20.105	 120.295
 2418	  0.2064	 20.2137	  20.214	 120.945
 2431	  0.2068	 20.3225	  20.323	 121.595
 2444	  0.2084	 20.4312	  20.431	 122.245
 2457	  0.2080	 20.5400	  20.540	 122.895
 2470	  0.2088	 20.6488	  20.649	 123.545
 2483	  0.2088	 20.7575	  20.757	 124.195
 2496	  0.2088	 20.8662	  20.866	 124.845
 2509	  0.2084	 20.9750	  20.975	 125.495
 2522	  0.2100	 21.0825	  21.083	 126.145
 2535	  0.2100	 21.1925	  21.192	 126.795
 2548	  0.2096	 21.3000	  21.300	 127.445
 2561	  0.2104	 21.4087	  21.409	 128.095
 2574	  0.2104	 21.5175	  21.517	 128.745
 2587	  0.2112	 21.6250	  21.625	 129.395
 2600	  0.2116	 21.7337	  21.734	 130.045
 2613	  0.2128	 21.8425	  21.842	 130.695
 2626	  0.2124	 21.9500	  21.950	 131.345
 2639	  0.2124	 22.0588	  22.059	 131.995
 2652	  0.2128	 22.1675	  22.167	 132.645
 2665	  0.2132	 22.2750	  22.275	 133.295
 2678	  0.2136	 22.3837	  22.384	 133.945
 2691	  0.2140	 22.4912	  22.491	 134.595
 2704	  0.2136	 22.6000	  22.600	 135.245
 2717	  0.2136	 22.7087	  22.709	 135.895
 2730	  0.2136	 22.8162	  22.816	 136.545
 2743	  0.2140	 22.9250	  22.925	 137.195
 2756	  0.2144	 23.0337	  23.034	 137.845
 2769	  0.2144	 23.1412	  23.141	 138.495
 2782	  0.2144	 23.2512	  23.251	 139.145
 2795	  0.2144	 23.3600	  23.360	 139.795
 2808	  0.2144	 23.4688	  23.469	 140.445
 2821	  0.2152	 23.5775	  23.577	 141.095
 2834	  0.2152	 23.6875	  23.688	 141.745
 2847	  0.2160	 23.7962	  23.796	 142.395
 2860	  0.2156	 23.9062	  23.906	 143.045
 2873	  0.2160	 24.0150	  24.015	 143.695
 2886	  0.2152	 24.1237	  24.124	 144.345
 2899	  0.2164	 24.2325	  24.233	 144.995
 2912	  0.2164	 24.3412	  24.341	 145.645
 2925	  0.2168	 24.4500	  24.450	 146.295
 2938	  0.2164	 24.5588	  24.559	 146.945
 2951	  0.2148	 24.6675	  24.667	 147.595
 2964	  0.0024	 24.7762	  24.776	 148.245
 2977	  0.0024	 24.8850	  24.885	 148.895
 2990	  0.0020	 24.9937	  24.994	 149.545
 3003	  0.0024	 25.1025	  25.102	 150.195
 3008	  0.0024	 25.1437	  25.144	 150.445
ControlMode:	0
Rate:	 10.0000
(null)
4
step	1
0
5.000000
0.000000
1
1
0.500000
2
step	2
1
5.000000
0.000000
1
1
2.000000
3
step	3
5
2.000000
0.000000
1
0
30
4
step	4
8
0.000000
0.000000
0
0
0.000000
0
2