Folder: UFTM/Dados - Compressão (part 2)

File: P2 - Mac 05.txt
0
Diameter:	   5.00
   1.00
Area:	  19.6350
GaugeLength:	  50.00
2009-1-1
A3
001
DataNumber:	351
index	Load(kN)	Defor(mm)	Stroke(mm)	Time(s)
    0	  0.0080	  0.0088	   0.009	   0.045
    2	  0.0180	  0.0250	   0.025	   0.145
    4	  0.0290	  0.0412	   0.041	   0.245
    6	  0.0430	  0.0575	   0.057	   0.345
    8	  0.0580	  0.0750	   0.075	   0.445
   10	  0.0770	  0.0912	   0.091	   0.545
   12	  0.0970	  0.1075	   0.107	   0.645
   14	  0.1190	  0.1237	   0.124	   0.745
   16	  0.1420	  0.1412	   0.141	   0.845
   18	  0.1640	  0.1575	   0.157	   0.945
   20	  0.1870	  0.1737	   0.174	   1.045
   22	  0.2100	  0.1900	   0.190	   1.145
   24	  0.2340	  0.2075	   0.207	   1.245
   26	  0.2570	  0.2237	   0.224	   1.345
   28	  0.2810	  0.2400	   0.240	   1.445
   30	  0.3040	  0.2575	   0.257	   1.545
   32	  0.3260	  0.2738	   0.274	   1.645
   34	  0.3500	  0.2900	   0.290	   1.745
   36	  0.3720	  0.3063	   0.306	   1.845
   38	  0.3950	  0.3237	   0.324	   1.945
   40	  0.4180	  0.3400	   0.340	   2.045
   42	  0.4400	  0.3562	   0.356	   2.145
   44	  0.4640	  0.3738	   0.374	   2.245
   46	  0.4870	  0.3900	   0.390	   2.345
   48	  0.5110	  0.4062	   0.406	   2.445
   50	  0.5360	  0.4225	   0.422	   2.545
   52	  0.5600	  0.4400	   0.440	   2.645
   54	  0.5850	  0.4562	   0.456	   2.745
   56	  0.6100	  0.4725	   0.472	   2.845
   58	  0.6370	  0.4900	   0.490	   2.945
   60	  0.6640	  0.5062	   0.506	   3.045
   62	  0.6910	  0.5225	   0.522	   3.145
   64	  0.7190	  0.5387	   0.539	   3.245
   66	  0.7480	  0.5562	   0.556	   3.345
   68	  0.7780	  0.5725	   0.572	   3.445
   70	  0.8090	  0.5888	   0.589	   3.545
   72	  0.8400	  0.6062	   0.606	   3.645
   74	  0.8720	  0.6225	   0.623	   3.745
   76	  0.9030	  0.6387	   0.639	   3.845
   78	  0.9340	  0.6550	   0.655	   3.945
   80	  0.9670	  0.6725	   0.673	   4.045
   82	  0.9990	  0.6887	   0.689	   4.145
   84	  1.0310	  0.7050	   0.705	   4.245
   86	  1.0640	  0.7212	   0.721	   4.345
   88	  1.0980	  0.7387	   0.739	   4.445
   90	  1.1290	  0.7550	   0.755	   4.545
   92	  1.1620	  0.7713	   0.771	   4.645
   94	  1.1940	  0.7875	   0.787	   4.745
   96	  1.2280	  0.8050	   0.805	   4.845
   98	  1.2620	  0.8212	   0.821	   4.945
  100	  1.2960	  0.8375	   0.837	   5.045
  102	  1.3310	  0.8550	   0.855	   5.145
  104	  1.3670	  0.8712	   0.871	   5.245
  106	  1.4030	  0.8875	   0.887	   5.345
  108	  1.4380	  0.9050	   0.905	   5.445
  110	  1.4740	  0.9212	   0.921	   5.545
  112	  1.5100	  0.9375	   0.938	   5.645
  114	  1.5460	  0.9537	   0.954	   5.745
  116	  1.5830	  0.9700	   0.970	   5.845
  118	  1.6200	  0.9875	   0.987	   5.945
  120	  1.6580	  1.0037	   1.004	   6.045
  122	  1.6950	  1.0200	   1.020	   6.145
  124	  1.7330	  1.0375	   1.038	   6.245
  126	  1.7690	  1.0537	   1.054	   6.345
  128	  1.8050	  1.0700	   1.070	   6.445
  130	  1.8410	  1.0862	   1.086	   6.545
  132	  1.8770	  1.1037	   1.104	   6.645
  134	  1.9140	  1.1200	   1.120	   6.745
  136	  1.9520	  1.1363	   1.136	   6.845
  138	  1.9910	  1.1537	   1.154	   6.945
  140	  2.0280	  1.1700	   1.170	   7.045
  142	  2.0660	  1.1862	   1.186	   7.145
  144	  2.1040	  1.2025	   1.202	   7.245
  146	  2.1420	  1.2188	   1.219	   7.345
  148	  2.1800	  1.2362	   1.236	   7.445
  150	  2.2190	  1.2525	   1.252	   7.545
  152	  2.2580	  1.2687	   1.269	   7.645
  154	  2.2960	  1.2862	   1.286	   7.745
  156	  2.3340	  1.3025	   1.303	   7.845
  158	  2.3710	  1.3188	   1.319	   7.945
  160	  2.4090	  1.3362	   1.336	   8.045
  162	  2.4470	  1.3525	   1.352	   8.145
  164	  2.4850	  1.3687	   1.369	   8.245
  166	  2.5250	  1.3850	   1.385	   8.345
  168	  2.5650	  1.4025	   1.402	   8.445
  170	  2.6030	  1.4187	   1.419	   8.545
  172	  2.6420	  1.4350	   1.435	   8.645
  174	  2.6810	  1.4525	   1.452	   8.745
  176	  2.7200	  1.4688	   1.469	   8.845
  178	  2.7560	  1.4850	   1.485	   8.945
  180	  1.1660	  1.5025	   1.502	   9.045
  182	  1.2090	  1.5187	   1.519	   9.145
  184	  1.2520	  1.5362	   1.536	   9.245
  186	  1.2960	  1.5525	   1.553	   9.345
  188	  1.3380	  1.5700	   1.570	   9.445
  190	  1.3780	  1.5862	   1.586	   9.545
  192	  1.4170	  1.6025	   1.602	   9.645
  194	  1.4540	  1.6200	   1.620	   9.745
  196	  1.4900	  1.6363	   1.636	   9.845
  198	  1.5260	  1.6525	   1.652	   9.945
  200	  1.5610	  1.6700	   1.670	  10.045
  202	  1.5950	  1.6862	   1.686	  10.145
  204	  1.6280	  1.7025	   1.702	  10.245
  206	  1.6600	  1.7200	   1.720	  10.345
  208	  1.6920	  1.7362	   1.736	  10.445
  210	  1.7220	  1.7525	   1.752	  10.545
  212	  1.7510	  1.7700	   1.770	  10.645
  214	  1.7790	  1.7862	   1.786	  10.745
  216	  1.8070	  1.8025	   1.803	  10.845
  218	  1.8340	  1.8200	   1.820	  10.945
  220	  1.8620	  1.8362	   1.836	  11.045
  222	  1.8880	  1.8537	   1.854	  11.145
  224	  1.9140	  1.8700	   1.870	  11.245
  226	  1.9390	  1.8862	   1.886	  11.345
  228	  1.9600	  1.9037	   1.904	  11.445
  230	  1.9760	  1.9200	   1.920	  11.545
  232	  1.9970	  1.9375	   1.938	  11.645
  234	  2.0190	  1.9538	   1.954	  11.745
  236	  2.0380	  1.9700	   1.970	  11.845
  238	  2.0580	  1.9875	   1.987	  11.945
  240	  2.0770	  2.0037	   2.004	  12.045
  242	  2.0960	  2.0200	   2.020	  12.145
  244	  2.1140	  2.0375	   2.037	  12.245
  246	  2.1330	  2.0538	   2.054	  12.345
  248	  2.1510	  2.0712	   2.071	  12.445
  250	  2.1700	  2.0875	   2.087	  12.545
  252	  2.1740	  2.1050	   2.105	  12.645
  254	  2.0780	  2.1212	   2.121	  12.745
  256	  2.0860	  2.1375	   2.138	  12.845
  258	  2.0950	  2.1550	   2.155	  12.945
  260	  2.1030	  2.1712	   2.171	  13.045
  262	  2.0850	  2.1875	   2.188	  13.145
  264	  2.0720	  2.2050	   2.205	  13.245
  266	  2.0780	  2.2213	   2.221	  13.345
  268	  2.0800	  2.2375	   2.237	  13.445
  270	  2.0740	  2.2550	   2.255	  13.545
  272	  1.9760	  2.2713	   2.271	  13.645
  274	  1.9540	  2.2887	   2.289	  13.745
  276	  1.9420	  2.3050	   2.305	  13.845
  278	  1.6910	  2.3225	   2.322	  13.945
  280	  1.2430	  2.3387	   2.339	  14.045
  282	  1.2370	  2.3563	   2.356	  14.145
  284	  1.2340	  2.3725	   2.372	  14.245
  286	  1.2320	  2.3887	   2.389	  14.345
  288	  1.2180	  2.4062	   2.406	  14.445
  290	  1.1940	  2.4225	   2.422	  14.545
  292	  0.5600	  2.4400	   2.440	  14.645
  294	  0.5550	  2.4562	   2.456	  14.745
  296	  0.5600	  2.4737	   2.474	  14.845
  298	  0.5660	  2.4900	   2.490	  14.945
  300	  0.5730	  2.5062	   2.506	  15.045
  302	  0.5790	  2.5237	   2.524	  15.145
  304	  0.5860	  2.5400	   2.540	  15.245
  306	  0.5910	  2.5575	   2.557	  15.345
  308	  0.5960	  2.5738	   2.574	  15.445
  310	  0.6000	  2.5912	   2.591	  15.545
  312	  0.6050	  2.6075	   2.607	  15.645
  314	  0.6090	  2.6250	   2.625	  15.745
  316	  0.6120	  2.6412	   2.641	  15.845
  318	  0.6150	  2.6588	   2.659	  15.945
  320	  0.6180	  2.6750	   2.675	  16.045
  322	  0.6170	  2.6912	   2.691	  16.145
  324	  0.4170	  2.7088	   2.709	  16.245
  326	  0.1680	  2.7250	   2.725	  16.345
  328	  0.1620	  2.7425	   2.742	  16.445
  330	  0.1590	  2.7587	   2.759	  16.545
  332	  0.1560	  2.7762	   2.776	  16.645
  334	  0.1570	  2.7925	   2.793	  16.745
  336	  0.1570	  2.8087	   2.809	  16.845
  338	  0.1540	  2.8262	   2.826	  16.945
  340	  0.1490	  2.8425	   2.842	  17.045
  342	  0.1480	  2.8600	   2.860	  17.145
  344	  0.1480	  2.8763	   2.876	  17.245
  346	  0.1490	  2.8925	   2.892	  17.345
  348	  0.1490	  2.9100	   2.910	  17.445
  350	  0.1460	  2.9262	   2.926	  17.545
ControlMode:	0
Rate:	 10.0000
(null)
4
step	1
0
5.000000
0.000000
1
1
0.500000
2
step	2
1
5.000000
0.000000
1
1
2.000000
3
step	3
5
2.000000
0.000000
1
0
30
4
step	4
8
0.000000
0.000000
0
0
0.000000
0
2