Folder: UFTM/Dados - Compressão

File: P2 - aluminio.txt
0
Diameter:	   5.00
   1.00
Area:	  19.6350
GaugeLength:	  50.00
2009-1-1
A3
001
DataNumber:	4807
index	Load(kN)	Defor(mm)	Stroke(mm)	Time(s)
    0	  0.0080	  0.0012	   0.001	   0.045
   21	  0.3000	  0.0187	   0.019	   1.095
   42	  0.8080	  0.0362	   0.036	   2.145
   63	  1.4340	  0.0537	   0.054	   3.195
   84	  2.1640	  0.0712	   0.071	   4.245
  105	  2.9800	  0.0887	   0.089	   5.295
  126	  3.9060	  0.1050	   0.105	   6.345
  147	  4.9560	  0.1225	   0.122	   7.395
  168	  6.1180	  0.1400	   0.140	   8.445
  189	  7.3660	  0.1575	   0.157	   9.495
  210	  8.6400	  0.1737	   0.174	  10.545
  231	 10.3960	  0.2000	   0.200	  11.595
  252	 11.6920	  0.2163	   0.216	  12.645
  273	 12.9720	  0.2338	   0.234	  13.695
  294	 14.1680	  0.2512	   0.251	  14.745
  315	 15.2560	  0.2687	   0.269	  15.795
  336	 16.2240	  0.2862	   0.286	  16.845
  357	 17.1560	  0.3025	   0.302	  17.895
  378	 18.0080	  0.3200	   0.320	  18.945
  399	 19.0800	  0.3462	   0.346	  19.995
  420	 19.6100	  0.3637	   0.364	  21.045
  441	 20.0300	  0.3812	   0.381	  22.095
  462	 20.3800	  0.3987	   0.399	  23.145
  483	 20.6700	  0.4162	   0.416	  24.195
  504	 20.9100	  0.4338	   0.434	  25.245
  525	 21.1300	  0.4512	   0.451	  26.295
  546	 21.3100	  0.4688	   0.469	  27.345
  567	 21.4800	  0.4862	   0.486	  28.395
  588	 21.6300	  0.5037	   0.504	  29.445
  609	 21.7700	  0.5213	   0.521	  30.495
  630	 21.9100	  0.5387	   0.539	  31.545
  651	 22.0300	  0.5562	   0.556	  32.595
  672	 22.1500	  0.5737	   0.574	  33.645
  693	 22.2700	  0.5913	   0.591	  34.695
  714	 22.3800	  0.6087	   0.609	  35.745
  735	 22.4900	  0.6262	   0.626	  36.795
  756	 22.6000	  0.6438	   0.644	  37.845
  777	 22.7100	  0.6612	   0.661	  38.895
  798	 22.8100	  0.6787	   0.679	  39.945
  819	 22.9100	  0.6962	   0.696	  40.995
  840	 23.0000	  0.7138	   0.714	  42.045
  861	 23.1000	  0.7312	   0.731	  43.095
  882	 23.2000	  0.7487	   0.749	  44.145
  903	 23.2900	  0.7662	   0.766	  45.195
  924	 23.3800	  0.7837	   0.784	  46.245
  945	 23.4800	  0.8012	   0.801	  47.295
  966	 23.5700	  0.8187	   0.819	  48.345
  987	 23.6500	  0.8363	   0.836	  49.395
 1008	 23.7400	  0.8537	   0.854	  50.445
 1029	 23.8300	  0.8712	   0.871	  51.495
 1050	 23.9100	  0.8887	   0.889	  52.545
 1071	 23.9900	  0.9062	   0.906	  53.595
 1092	 24.0700	  0.9250	   0.925	  54.645
 1113	 24.1500	  0.9425	   0.942	  55.695
 1134	 24.2300	  0.9600	   0.960	  56.745
 1155	 24.3100	  0.9762	   0.976	  57.795
 1176	 24.3900	  0.9937	   0.994	  58.845
 1197	 24.4600	  1.0125	   1.012	  59.895
 1218	 24.5400	  1.0300	   1.030	  60.945
 1239	 24.6100	  1.0475	   1.048	  61.995
 1260	 24.6800	  1.0650	   1.065	  63.045
 1281	 24.7500	  1.0825	   1.082	  64.095
 1302	 24.8200	  1.1000	   1.100	  65.145
 1323	 24.8900	  1.1175	   1.117	  66.195
 1344	 24.9600	  1.1350	   1.135	  67.245
 1365	 25.0200	  1.1525	   1.153	  68.295
 1386	 25.0900	  1.1700	   1.170	  69.345
 1407	 25.1500	  1.1875	   1.188	  70.395
 1428	 25.2100	  1.2062	   1.206	  71.445
 1449	 25.2800	  1.2225	   1.222	  72.495
 1470	 25.3400	  1.2412	   1.241	  73.545
 1491	 25.4100	  1.2587	   1.259	  74.595
 1512	 25.4600	  1.2763	   1.276	  75.645
 1533	 25.5200	  1.2937	   1.294	  76.695
 1554	 25.5800	  1.3112	   1.311	  77.745
 1575	 25.6400	  1.3288	   1.329	  78.795
 1596	 25.7000	  1.3462	   1.346	  79.845
 1617	 25.7500	  1.3637	   1.364	  80.895
 1638	 25.8100	  1.3813	   1.381	  81.945
 1659	 25.8600	  1.3987	   1.399	  82.995
 1680	 25.9200	  1.4162	   1.416	  84.045
 1701	 25.9700	  1.4337	   1.434	  85.095
 1722	 26.0200	  1.4512	   1.451	  86.145
 1743	 26.0700	  1.4688	   1.469	  87.195
 1764	 26.1200	  1.4862	   1.486	  88.245
 1785	 26.1700	  1.5037	   1.504	  89.295
 1806	 26.2200	  1.5213	   1.521	  90.345
 1827	 26.2700	  1.5387	   1.539	  91.395
 1848	 26.3200	  1.5562	   1.556	  92.445
 1869	 26.3700	  1.5750	   1.575	  93.495
 1890	 26.4200	  1.5925	   1.592	  94.545
 1911	 26.4700	  1.6100	   1.610	  95.595
 1932	 26.5100	  1.6275	   1.627	  96.645
 1953	 26.5600	  1.6450	   1.645	  97.695
 1974	 26.6100	  1.6625	   1.662	  98.745
 1995	 26.6500	  1.6800	   1.680	  99.795
 2016	 26.7000	  1.6975	   1.697	 100.845
 2037	 26.7400	  1.7150	   1.715	 101.895
 2058	 26.7900	  1.7325	   1.732	 102.945
 2079	 26.8300	  1.7500	   1.750	 103.995
 2100	 26.8700	  1.7675	   1.767	 105.045
 2121	 26.9200	  1.7850	   1.785	 106.095
 2142	 26.9600	  1.8025	   1.803	 107.145
 2163	 27.0100	  1.8200	   1.820	 108.195
 2184	 27.0500	  1.8375	   1.837	 109.245
 2205	 27.0900	  1.8562	   1.856	 110.295
 2226	 27.1300	  1.8737	   1.874	 111.345
 2247	 27.1700	  1.8913	   1.891	 112.395
 2268	 27.2100	  1.9087	   1.909	 113.445
 2289	 27.2500	  1.9262	   1.926	 114.495
 2310	 27.2900	  1.9437	   1.944	 115.545
 2331	 27.3300	  1.9612	   1.961	 116.595
 2352	 27.3700	  1.9787	   1.979	 117.645
 2373	 27.4200	  1.9962	   1.996	 118.695
 2394	 27.4500	  2.0137	   2.014	 119.745
 2415	 27.4900	  2.0312	   2.031	 120.795
 2436	 27.5300	  2.0487	   2.049	 121.845
 2457	 27.5700	  2.0662	   2.066	 122.895
 2478	 27.6100	  2.0838	   2.084	 123.945
 2499	 27.6500	  2.1012	   2.101	 124.995
 2520	 27.6900	  2.1187	   2.119	 126.045
 2541	 27.7300	  2.1375	   2.138	 127.095
 2562	 27.7700	  2.1550	   2.155	 128.145
 2583	 27.8100	  2.1725	   2.172	 129.195
 2604	 27.8500	  2.1900	   2.190	 130.245
 2625	 27.8900	  2.2075	   2.207	 131.295
 2646	 27.9300	  2.2250	   2.225	 132.345
 2667	 27.9600	  2.2425	   2.243	 133.395
 2688	 28.0000	  2.2600	   2.260	 134.445
 2709	 28.0400	  2.2775	   2.277	 135.495
 2730	 28.0800	  2.2950	   2.295	 136.545
 2751	 28.1200	  2.3125	   2.312	 137.595
 2772	 28.1500	  2.3300	   2.330	 138.645
 2793	 28.1900	  2.3475	   2.347	 139.695
 2814	 28.2300	  2.3650	   2.365	 140.745
 2835	 28.2700	  2.3825	   2.382	 141.795
 2856	 28.3100	  2.4000	   2.400	 142.845
 2877	 28.3500	  2.4175	   2.418	 143.895
 2898	 28.3800	  2.4350	   2.435	 144.945
 2919	 28.4200	  2.4525	   2.452	 145.995
 2940	 28.4600	  2.4700	   2.470	 147.045
 2961	 28.4900	  2.4875	   2.487	 148.095
 2982	 28.5300	  2.5050	   2.505	 149.145
 3003	 28.5700	  2.5225	   2.523	 150.195
 3024	 28.6100	  2.5400	   2.540	 151.245
 3045	 28.6400	  2.5575	   2.557	 152.295
 3066	 28.6800	  2.5750	   2.575	 153.345
 3087	 28.7200	  2.5925	   2.592	 154.395
 3108	 28.7600	  2.6100	   2.610	 155.445
 3129	 28.8000	  2.6275	   2.628	 156.495
 3150	 28.8300	  2.6450	   2.645	 157.545
 3171	 28.8700	  2.6625	   2.662	 158.595
 3192	 28.9100	  2.6812	   2.681	 159.645
 3213	 28.9500	  2.6988	   2.699	 160.695
 3234	 28.9800	  2.7162	   2.716	 161.745
 3255	 29.0200	  2.7337	   2.734	 162.795
 3276	 29.0500	  2.7513	   2.751	 163.845
 3297	 29.0900	  2.7675	   2.767	 164.895
 3318	 29.1300	  2.7850	   2.785	 165.945
 3339	 29.1700	  2.8025	   2.803	 166.995
 3360	 29.2000	  2.8200	   2.820	 168.045
 3381	 29.2400	  2.8387	   2.839	 169.095
 3402	 29.2800	  2.8563	   2.856	 170.145
 3423	 29.3200	  2.8737	   2.874	 171.195
 3444	 29.3500	  2.8912	   2.891	 172.245
 3465	 29.3900	  2.9087	   2.909	 173.295
 3486	 29.4300	  2.9262	   2.926	 174.345
 3507	 29.4700	  2.9437	   2.944	 175.395
 3528	 29.5100	  2.9612	   2.961	 176.445
 3549	 29.5500	  2.9775	   2.977	 177.495
 3570	 29.5800	  2.9950	   2.995	 178.545
 3591	 29.6200	  3.0125	   3.013	 179.595
 3612	 29.6600	  3.0300	   3.030	 180.645
 3633	 29.6900	  3.0475	   3.047	 181.695
 3654	 29.7400	  3.0650	   3.065	 182.745
 3675	 29.7800	  3.0825	   3.082	 183.795
 3696	 29.8100	  3.1000	   3.100	 184.845
 3717	 29.8500	  3.1175	   3.117	 185.895
 3738	 29.8900	  3.1350	   3.135	 186.945
 3759	 29.9200	  3.1525	   3.152	 187.995
 3780	 29.9600	  3.1700	   3.170	 189.045
 3801	 30.0000	  3.1875	   3.188	 190.095
 3822	 30.0400	  3.2050	   3.205	 191.145
 3843	 30.0800	  3.2237	   3.224	 192.195
 3864	 30.1200	  3.2413	   3.241	 193.245
 3885	 30.1600	  3.2587	   3.259	 194.295
 3906	 30.1900	  3.2762	   3.276	 195.345
 3927	 30.2300	  3.2937	   3.294	 196.395
 3948	 30.2700	  3.3112	   3.311	 197.445
 3969	 30.3100	  3.3287	   3.329	 198.495
 3990	 30.3500	  3.3462	   3.346	 199.545
 4011	 30.3900	  3.3637	   3.364	 200.595
 4032	 30.4300	  3.3812	   3.381	 201.645
 4053	 30.4700	  3.3987	   3.399	 202.695
 4074	 30.5000	  3.4162	   3.416	 203.745
 4095	 30.5400	  3.4337	   3.434	 204.795
 4116	 30.5800	  3.4512	   3.451	 205.845
 4137	 30.6200	  3.4688	   3.469	 206.895
 4158	 30.6600	  3.4862	   3.486	 207.945
 4179	 30.7000	  3.5037	   3.504	 208.995
 4200	 30.7400	  3.5213	   3.521	 210.045
 4221	 30.7700	  3.5387	   3.539	 211.095
 4242	 30.8100	  3.5562	   3.556	 212.145
 4263	 30.8500	  3.5725	   3.572	 213.195
 4284	 30.8900	  3.5900	   3.590	 214.245
 4305	 30.9300	  3.6075	   3.607	 215.295
 4326	 30.9700	  3.6250	   3.625	 216.345
 4347	 31.0200	  3.6425	   3.642	 217.395
 4368	 31.0500	  3.6612	   3.661	 218.445
 4389	 31.0900	  3.6787	   3.679	 219.495
 4410	 31.1300	  3.6962	   3.696	 220.545
 4431	 31.1700	  3.7137	   3.714	 221.595
 4452	 31.2100	  3.7300	   3.730	 222.645
 4473	 31.2500	  3.7475	   3.747	 223.695
 4494	 31.2900	  3.7650	   3.765	 224.745
 4515	 31.3300	  3.7825	   3.783	 225.795
 4536	 31.3700	  3.8012	   3.801	 226.845
 4557	 31.4100	  3.8187	   3.819	 227.895
 4578	 31.4500	  3.8362	   3.836	 228.945
 4599	 31.4900	  3.8525	   3.852	 229.995
 4620	 31.5300	  3.8700	   3.870	 231.045
 4641	 31.5700	  3.8875	   3.887	 232.095
 4662	 31.6100	  3.9050	   3.905	 233.145
 4683	 31.6600	  3.9225	   3.922	 234.195
 4704	 31.6900	  3.9400	   3.940	 235.245
 4725	 31.7400	  3.9575	   3.957	 236.295
 4746	 31.7800	  3.9762	   3.976	 237.345
 4767	 31.8100	  3.9937	   3.994	 238.395
 4788	 31.8600	  4.0113	   4.011	 239.445
 4806	 31.8900	  4.0262	   4.026	 240.345
ControlMode:	0
Rate:	  1.0000
(null)
4
step	1
0
5.000000
0.000000
1
1
0.500000
2
step	2
1
5.000000
0.000000
1
1
2.000000
3
step	3
5
2.000000
0.000000
1
0
30
4
step	4
8
0.000000
0.000000
0
0
0.000000
0
2

File: P2 - Mac 02.txt
0
Diameter:	   5.00
   1.00
Area:	  19.6350
GaugeLength:	  50.00
2009-1-1
A3
001
DataNumber:	278
index	Load(kN)	Defor(mm)	Stroke(mm)	Time(s)
    0	  0.0080	  0.0088	   0.009	   0.045
    2	  0.0160	  0.0250	   0.025	   0.145
    4	  0.0100	  0.0412	   0.041	   0.245
    6	  0.0120	  0.0575	   0.057	   0.345
    8	  0.0160	  0.0750	   0.075	   0.445
   10	  0.0240	  0.0912	   0.091	   0.545
   12	  0.0300	  0.1075	   0.107	   0.645
   14	  0.0360	  0.1250	   0.125	   0.745
   16	  0.0300	  0.1412	   0.141	   0.845
   18	  0.0380	  0.1575	   0.157	   0.945
   20	  0.0640	  0.1750	   0.175	   1.045
   22	  0.0910	  0.1912	   0.191	   1.145
   24	  0.1200	  0.2075	   0.207	   1.245
   26	  0.1530	  0.2237	   0.224	   1.345
   28	  0.1900	  0.2412	   0.241	   1.445
   30	  0.2320	  0.2575	   0.257	   1.545
   32	  0.2770	  0.2738	   0.274	   1.645
   34	  0.3240	  0.2912	   0.291	   1.745
   36	  0.3690	  0.3075	   0.308	   1.845
   38	  0.4160	  0.3237	   0.324	   1.945
   40	  0.4630	  0.3413	   0.341	   2.045
   42	  0.5140	  0.3575	   0.357	   2.145
   44	  0.5670	  0.3738	   0.374	   2.245
   46	  0.6250	  0.3912	   0.391	   2.345
   48	  0.6830	  0.4075	   0.407	   2.445
   50	  0.7450	  0.4250	   0.425	   2.545
   52	  0.8060	  0.4412	   0.441	   2.645
   54	  0.8690	  0.4575	   0.457	   2.745
   56	  0.9320	  0.4750	   0.475	   2.845
   58	  0.9960	  0.4912	   0.491	   2.945
   60	  1.0600	  0.5075	   0.507	   3.045
   62	  1.1240	  0.5250	   0.525	   3.145
   64	  1.1880	  0.5412	   0.541	   3.245
   66	  1.2520	  0.5575	   0.558	   3.345
   68	  1.3170	  0.5737	   0.574	   3.445
   70	  1.3830	  0.5913	   0.591	   3.545
   72	  1.4500	  0.6075	   0.607	   3.645
   74	  1.5170	  0.6237	   0.624	   3.745
   76	  1.5860	  0.6413	   0.641	   3.845
   78	  1.6560	  0.6575	   0.657	   3.945
   80	  1.7270	  0.6750	   0.675	   4.045
   82	  1.7990	  0.6912	   0.691	   4.145
   84	  1.8700	  0.7075	   0.707	   4.245
   86	  1.9410	  0.7250	   0.725	   4.345
   88	  2.0130	  0.7412	   0.741	   4.445
   90	  2.0850	  0.7575	   0.757	   4.545
   92	  2.1570	  0.7750	   0.775	   4.645
   94	  2.2300	  0.7912	   0.791	   4.745
   96	  2.3000	  0.8075	   0.808	   4.845
   98	  2.3710	  0.8237	   0.824	   4.945
  100	  2.4400	  0.8413	   0.841	   5.045
  102	  2.5080	  0.8575	   0.857	   5.145
  104	  2.5760	  0.8750	   0.875	   5.245
  106	  2.6430	  0.8912	   0.891	   5.345
  108	  2.7100	  0.9075	   0.907	   5.445
  110	  2.7760	  0.9250	   0.925	   5.545
  112	  2.8430	  0.9412	   0.941	   5.645
  114	  2.9060	  0.9575	   0.957	   5.745
  116	  2.9710	  0.9750	   0.975	   5.845
  118	  3.0330	  0.9912	   0.991	   5.945
  120	  3.0950	  1.0075	   1.007	   6.045
  122	  1.3210	  1.0237	   1.024	   6.145
  124	  1.3700	  1.0400	   1.040	   6.245
  126	  1.4150	  1.0575	   1.058	   6.345
  128	  1.4570	  1.0738	   1.074	   6.445
  130	  1.4980	  1.0912	   1.091	   6.545
  132	  1.5380	  1.1075	   1.107	   6.645
  134	  1.5740	  1.1237	   1.124	   6.745
  136	  1.6090	  1.1413	   1.141	   6.845
  138	  1.6420	  1.1575	   1.158	   6.945
  140	  1.6750	  1.1750	   1.175	   7.045
  142	  1.7070	  1.1912	   1.191	   7.145
  144	  1.7370	  1.2075	   1.207	   7.245
  146	  1.7660	  1.2250	   1.225	   7.345
  148	  1.7950	  1.2412	   1.241	   7.445
  150	  1.8220	  1.2587	   1.259	   7.545
  152	  1.8470	  1.2750	   1.275	   7.645
  154	  1.8710	  1.2912	   1.291	   7.745
  156	  1.8950	  1.3087	   1.309	   7.845
  158	  1.9170	  1.3250	   1.325	   7.945
  160	  1.9400	  1.3412	   1.341	   8.045
  162	  1.9590	  1.3587	   1.359	   8.145
  164	  1.9760	  1.3750	   1.375	   8.245
  166	  1.9850	  1.3925	   1.392	   8.345
  168	  2.0000	  1.4087	   1.409	   8.445
  170	  2.0170	  1.4262	   1.426	   8.545
  172	  2.0330	  1.4425	   1.442	   8.645
  174	  2.0310	  1.4588	   1.459	   8.745
  176	  2.0440	  1.4762	   1.476	   8.845
  178	  2.0580	  1.4925	   1.492	   8.945
  180	  2.0700	  1.5100	   1.510	   9.045
  182	  2.0780	  1.5263	   1.526	   9.145
  184	  2.0070	  1.5425	   1.543	   9.245
  186	  1.9020	  1.5600	   1.560	   9.345
  188	  1.8090	  1.5762	   1.576	   9.445
  190	  1.7150	  1.5938	   1.594	   9.545
  192	  1.6850	  1.6100	   1.610	   9.645
  194	  1.6680	  1.6262	   1.626	   9.745
  196	  1.6530	  1.6437	   1.644	   9.845
  198	  1.6380	  1.6600	   1.660	   9.945
  200	  1.6290	  1.6775	   1.678	  10.045
  202	  1.6220	  1.6937	   1.694	  10.145
  204	  1.6080	  1.7112	   1.711	  10.245
  206	  1.4250	  1.7275	   1.727	  10.345
  208	  1.4250	  1.7437	   1.744	  10.445
  210	  1.4280	  1.7613	   1.761	  10.545
  212	  1.4300	  1.7775	   1.777	  10.645
  214	  1.4330	  1.7950	   1.795	  10.745
  216	  1.4360	  1.8112	   1.811	  10.845
  218	  1.4410	  1.8288	   1.829	  10.945
  220	  1.3830	  1.8450	   1.845	  11.045
  222	  0.9380	  1.8625	   1.862	  11.145
  224	  0.8410	  1.8787	   1.879	  11.245
  226	  0.8360	  1.8950	   1.895	  11.345
  228	  0.8370	  1.9125	   1.912	  11.445
  230	  0.8400	  1.9287	   1.929	  11.545
  232	  0.8430	  1.9462	   1.946	  11.645
  234	  0.8470	  1.9625	   1.962	  11.745
  236	  0.8520	  1.9787	   1.979	  11.845
  238	  0.8560	  1.9962	   1.996	  11.945
  240	  0.8590	  2.0125	   2.013	  12.045
  242	  0.8600	  2.0300	   2.030	  12.145
  244	  0.8630	  2.0462	   2.046	  12.245
  246	  0.8580	  2.0625	   2.062	  12.345
  248	  0.4330	  2.0800	   2.080	  12.445
  250	  0.1190	  2.0963	   2.096	  12.545
  252	  0.1060	  2.1125	   2.112	  12.645
  254	  0.1000	  2.1300	   2.130	  12.745
  256	  0.0960	  2.1463	   2.146	  12.845
  258	  0.0900	  2.1637	   2.164	  12.945
  260	  0.0740	  2.1800	   2.180	  13.045
  262	  0.0660	  2.1962	   2.196	  13.145
  264	  0.0580	  2.2137	   2.214	  13.245
  266	  0.0500	  2.2300	   2.230	  13.345
  268	  0.0430	  2.2475	   2.247	  13.445
  270	  0.0390	  2.2637	   2.264	  13.545
  272	  0.0350	  2.2800	   2.280	  13.645
  274	  0.0350	  2.2975	   2.297	  13.745
  276	  0.0240	  2.3138	   2.314	  13.845
  277	  0.0230	  2.3225	   2.322	  13.895
ControlMode:	0
Rate:	 10.0000
(null)
4
step	1
0
5.000000
0.000000
1
1
0.500000
2
step	2
1
5.000000
0.000000
1
1
2.000000
3
step	3
5
2.000000
0.000000
1
0
30
4
step	4
8
0.000000
0.000000
0
0
0.000000
0
2

File: P2 - Mac 04.txt
0
Diameter:	   5.00
   1.00
Area:	  19.6350
GaugeLength:	  50.00
2009-1-1
A3
001
DataNumber:	336
index	Load(kN)	Defor(mm)	Stroke(mm)	Time(s)
    0	  0.0070	  0.0088	   0.009	   0.045
    2	  0.0100	  0.0250	   0.025	   0.145
    4	  0.0120	  0.0412	   0.041	   0.245
    6	  0.0120	  0.0587	   0.059	   0.345
    8	  0.0140	  0.0750	   0.075	   0.445
   10	  0.0150	  0.0912	   0.091	   0.545
   12	  0.0160	  0.1088	   0.109	   0.645
   14	  0.0150	  0.1250	   0.125	   0.745
   16	  0.0140	  0.1412	   0.141	   0.845
   18	  0.0140	  0.1575	   0.157	   0.945
   20	  0.0180	  0.1750	   0.175	   1.045
   22	  0.0230	  0.1912	   0.191	   1.145
   24	  0.0300	  0.2075	   0.207	   1.245
   26	  0.0350	  0.2237	   0.224	   1.345
   28	  0.0420	  0.2412	   0.241	   1.445
   30	  0.0460	  0.2575	   0.257	   1.545
   32	  0.0480	  0.2738	   0.274	   1.645
   34	  0.0420	  0.2912	   0.291	   1.745
   36	  0.0420	  0.3075	   0.308	   1.845
   38	  0.0470	  0.3237	   0.324	   1.945
   40	  0.0510	  0.3413	   0.341	   2.045
   42	  0.0550	  0.3575	   0.357	   2.145
   44	  0.0560	  0.3738	   0.374	   2.245
   46	  0.0590	  0.3900	   0.390	   2.345
   48	  0.0760	  0.4075	   0.407	   2.445
   50	  0.0960	  0.4237	   0.424	   2.545
   52	  0.1200	  0.4400	   0.440	   2.645
   54	  0.1430	  0.4562	   0.456	   2.745
   56	  0.1710	  0.4737	   0.474	   2.845
   58	  0.2010	  0.4900	   0.490	   2.945
   60	  0.2310	  0.5062	   0.506	   3.045
   62	  0.2610	  0.5238	   0.524	   3.145
   64	  0.2930	  0.5400	   0.540	   3.245
   66	  0.3250	  0.5562	   0.556	   3.345
   68	  0.3580	  0.5737	   0.574	   3.445
   70	  0.3910	  0.5900	   0.590	   3.545
   72	  0.4230	  0.6062	   0.606	   3.645
   74	  0.4570	  0.6225	   0.623	   3.745
   76	  0.4900	  0.6400	   0.640	   3.845
   78	  0.5230	  0.6562	   0.656	   3.945
   80	  0.5560	  0.6725	   0.673	   4.045
   82	  0.5890	  0.6887	   0.689	   4.145
   84	  0.6230	  0.7063	   0.706	   4.245
   86	  0.6570	  0.7225	   0.722	   4.345
   88	  0.6900	  0.7387	   0.739	   4.445
   90	  0.7260	  0.7550	   0.755	   4.545
   92	  0.7590	  0.7725	   0.772	   4.645
   94	  0.7930	  0.7887	   0.789	   4.745
   96	  0.8270	  0.8050	   0.805	   4.845
   98	  0.8630	  0.8225	   0.822	   4.945
  100	  0.9000	  0.8388	   0.839	   5.045
  102	  0.9370	  0.8550	   0.855	   5.145
  104	  0.9740	  0.8712	   0.871	   5.245
  106	  1.0130	  0.8887	   0.889	   5.345
  108	  1.0520	  0.9050	   0.905	   5.445
  110	  1.0930	  0.9212	   0.921	   5.545
  112	  1.1350	  0.9387	   0.939	   5.645
  114	  1.1760	  0.9550	   0.955	   5.745
  116	  1.2180	  0.9712	   0.971	   5.845
  118	  1.2600	  0.9887	   0.989	   5.945
  120	  1.3040	  1.0050	   1.005	   6.045
  122	  1.3470	  1.0213	   1.021	   6.145
  124	  1.3910	  1.0387	   1.039	   6.245
  126	  1.4340	  1.0550	   1.055	   6.345
  128	  1.4770	  1.0712	   1.071	   6.445
  130	  1.5210	  1.0888	   1.089	   6.545
  132	  1.5660	  1.1050	   1.105	   6.645
  134	  1.6110	  1.1213	   1.121	   6.745
  136	  1.6570	  1.1387	   1.139	   6.845
  138	  1.7020	  1.1550	   1.155	   6.945
  140	  1.7500	  1.1712	   1.171	   7.045
  142	  1.7980	  1.1888	   1.189	   7.145
  144	  1.8460	  1.2050	   1.205	   7.245
  146	  1.8940	  1.2212	   1.221	   7.345
  148	  1.9430	  1.2387	   1.239	   7.445
  150	  1.9920	  1.2550	   1.255	   7.545
  152	  2.0420	  1.2713	   1.271	   7.645
  154	  2.0920	  1.2887	   1.289	   7.745
  156	  2.1410	  1.3050	   1.305	   7.845
  158	  2.1910	  1.3225	   1.322	   7.945
  160	  2.2390	  1.3388	   1.339	   8.045
  162	  2.2860	  1.3550	   1.355	   8.145
  164	  2.2980	  1.3725	   1.372	   8.245
  166	  2.3150	  1.3887	   1.389	   8.345
  168	  2.3120	  1.4050	   1.405	   8.445
  170	  2.3090	  1.4225	   1.423	   8.545
  172	  1.7690	  1.4387	   1.439	   8.645
  174	  1.5670	  1.4562	   1.456	   8.745
  176	  1.6120	  1.4725	   1.472	   8.845
  178	  1.6520	  1.4887	   1.489	   8.945
  180	  1.6900	  1.5063	   1.506	   9.045
  182	  1.7290	  1.5225	   1.522	   9.145
  184	  1.7640	  1.5387	   1.539	   9.245
  186	  1.7970	  1.5562	   1.556	   9.345
  188	  1.8280	  1.5725	   1.572	   9.445
  190	  1.8540	  1.5900	   1.590	   9.545
  192	  1.8830	  1.6062	   1.606	   9.645
  194	  1.9110	  1.6225	   1.622	   9.745
  196	  1.9390	  1.6400	   1.640	   9.845
  198	  1.9630	  1.6562	   1.656	   9.945
  200	  1.9880	  1.6725	   1.673	  10.045
  202	  2.0150	  1.6900	   1.690	  10.145
  204	  2.0390	  1.7062	   1.706	  10.245
  206	  2.0610	  1.7225	   1.722	  10.345
  208	  2.0830	  1.7400	   1.740	  10.445
  210	  2.1030	  1.7562	   1.756	  10.545
  212	  2.1210	  1.7737	   1.774	  10.645
  214	  2.1400	  1.7900	   1.790	  10.745
  216	  2.1610	  1.8062	   1.806	  10.845
  218	  2.1810	  1.8237	   1.824	  10.945
  220	  2.2020	  1.8400	   1.840	  11.045
  222	  2.2200	  1.8575	   1.857	  11.145
  224	  2.2320	  1.8737	   1.874	  11.245
  226	  2.2410	  1.8913	   1.891	  11.345
  228	  2.2540	  1.9075	   1.907	  11.445
  230	  2.2640	  1.9237	   1.924	  11.545
  232	  2.2720	  1.9412	   1.941	  11.645
  234	  2.2790	  1.9575	   1.957	  11.745
  236	  2.2900	  1.9737	   1.974	  11.845
  238	  2.3010	  1.9912	   1.991	  11.945
  240	  2.3100	  2.0075	   2.007	  12.045
  242	  2.3170	  2.0250	   2.025	  12.145
  244	  2.3160	  2.0412	   2.041	  12.245
  246	  2.1750	  2.0587	   2.059	  12.345
  248	  1.5730	  2.0750	   2.075	  12.445
  250	  1.5560	  2.0925	   2.092	  12.545
  252	  1.5570	  2.1087	   2.109	  12.645
  254	  1.5660	  2.1263	   2.126	  12.745
  256	  1.5770	  2.1425	   2.142	  12.845
  258	  1.5890	  2.1588	   2.159	  12.945
  260	  1.6000	  2.1762	   2.176	  13.045
  262	  1.6070	  2.1925	   2.192	  13.145
  264	  1.6120	  2.2100	   2.210	  13.245
  266	  1.6090	  2.2262	   2.226	  13.345
  268	  1.5790	  2.2425	   2.243	  13.445
  270	  1.5500	  2.2600	   2.260	  13.545
  272	  1.4920	  2.2762	   2.276	  13.645
  274	  1.4510	  2.2938	   2.294	  13.745
  276	  1.4130	  2.3100	   2.310	  13.845
  278	  0.5050	  2.3275	   2.327	  13.945
  280	  0.4740	  2.3438	   2.344	  14.045
  282	  0.4620	  2.3600	   2.360	  14.145
  284	  0.4540	  2.3775	   2.378	  14.245
  286	  0.4470	  2.3937	   2.394	  14.345
  288	  0.4420	  2.4112	   2.411	  14.445
  290	  0.4350	  2.4275	   2.428	  14.545
  292	  0.4270	  2.4450	   2.445	  14.645
  294	  0.4160	  2.4612	   2.461	  14.745
  296	  0.4080	  2.4775	   2.477	  14.845
  298	  0.3990	  2.4950	   2.495	  14.945
  300	  0.3890	  2.5113	   2.511	  15.045
  302	  0.3810	  2.5287	   2.529	  15.145
  304	  0.3730	  2.5450	   2.545	  15.245
  306	  0.3670	  2.5612	   2.561	  15.345
  308	  0.3600	  2.5787	   2.579	  15.445
  310	  0.3530	  2.5950	   2.595	  15.545
  312	  0.3440	  2.6125	   2.612	  15.645
  314	  0.3360	  2.6287	   2.629	  15.745
  316	  0.3240	  2.6450	   2.645	  15.845
  318	  0.3060	  2.6625	   2.662	  15.945
  320	  0.2820	  2.6788	   2.679	  16.045
  322	  0.2700	  2.6962	   2.696	  16.145
  324	  0.2530	  2.7125	   2.712	  16.245
  326	  0.2390	  2.7287	   2.729	  16.345
  328	  0.2280	  2.7462	   2.746	  16.445
  330	  0.2190	  2.7625	   2.763	  16.545
  332	  0.2070	  2.7800	   2.780	  16.645
  334	  0.1950	  2.7962	   2.796	  16.745
  335	  0.1880	  2.8050	   2.805	  16.795
ControlMode:	0
Rate:	 10.0000
(null)
4
step	1
0
5.000000
0.000000
1
1
0.500000
2
step	2
1
5.000000
0.000000
1
1
2.000000
3
step	3
5
2.000000
0.000000
1
0
30
4
step	4
8
0.000000
0.000000
0
0
0.000000
0
2