Folder: UFTM/Dados - Tração

File: P2-lacre guinner 01.txt
0
Diameter:	   5.00
   1.00
Area:	  19.6350
GaugeLength:	  50.00
2009-1-1
A3
001
DataNumber:	5987
index	Load(kN)	Defor(mm)	Stroke(mm)	Time(s)
    0	  0.0096	  0.0088	   0.009	   0.045
   26	  0.0096	  0.2250	   0.225	   1.345
   52	  0.0104	  0.4412	   0.441	   2.645
   78	  0.0112	  0.6587	   0.659	   3.945
  104	  0.0124	  0.8762	   0.876	   5.245
  130	  0.0136	  1.0938	   1.094	   6.545
  156	  0.0148	  1.3100	   1.310	   7.845
  182	  0.0160	  1.5275	   1.527	   9.145
  208	  0.0168	  1.7450	   1.745	  10.445
  234	  0.0188	  1.9638	   1.964	  11.745
  260	  0.0208	  2.1812	   2.181	  13.045
  286	  0.0224	  2.3987	   2.399	  14.345
  312	  0.0244	  2.6150	   2.615	  15.645
  338	  0.0272	  2.8338	   2.834	  16.945
  364	  0.0296	  3.0525	   3.053	  18.245
  390	  0.0328	  3.2700	   3.270	  19.545
  416	  0.0336	  3.4875	   3.487	  20.845
  442	  0.0384	  3.7037	   3.704	  22.145
  468	  0.0420	  3.9200	   3.920	  23.445
  494	  0.0452	  4.1363	   4.136	  24.745
  520	  0.0492	  4.3525	   4.352	  26.045
  546	  0.0524	  4.5700	   4.570	  27.345
  572	  0.0560	  4.7863	   4.786	  28.645
  598	  0.0604	  5.0037	   5.004	  29.945
  624	  0.0644	  5.2213	   5.221	  31.245
  650	  0.0692	  5.4375	   5.438	  32.545
  676	  0.0744	  5.6550	   5.655	  33.845
  702	  0.0796	  5.8725	   5.872	  35.145
  728	  0.0844	  6.0887	   6.089	  36.445
  754	  0.0904	  6.3063	   6.306	  37.745
  780	  0.0952	  6.5250	   6.525	  39.045
  806	  0.1004	  6.7413	   6.741	  40.345
  832	  0.1072	  6.9600	   6.960	  41.645
  858	  0.1000	  7.1775	   7.177	  42.945
  884	  0.1076	  7.3950	   7.395	  44.245
  910	  0.1124	  7.6100	   7.610	  45.545
  936	  0.1188	  7.8262	   7.826	  46.845
  962	  0.1256	  8.0437	   8.044	  48.145
  988	  0.1320	  8.2612	   8.261	  49.445
 1014	  0.1368	  8.4775	   8.477	  50.745
 1040	  0.1420	  8.6950	   8.695	  52.045
 1066	  0.1472	  8.9125	   8.912	  53.345
 1092	  0.1532	  9.1287	   9.129	  54.645
 1118	  0.1584	  9.3462	   9.346	  55.945
 1144	  0.1632	  9.5637	   9.564	  57.245
 1170	  0.1676	  9.7825	   9.782	  58.545
 1196	  0.1736	 10.0000	  10.000	  59.845
 1222	  0.1776	 10.2188	  10.219	  61.145
 1248	  0.1832	 10.4362	  10.436	  62.445
 1274	  0.1884	 10.6537	  10.654	  63.745
 1300	  0.1932	 10.8713	  10.871	  65.045
 1326	  0.1976	 11.0887	  11.089	  66.345
 1352	  0.2020	 11.3062	  11.306	  67.645
 1378	  0.2056	 11.5237	  11.524	  68.945
 1404	  0.2108	 11.7400	  11.740	  70.245
 1430	  0.2148	 11.9575	  11.957	  71.545
 1456	  0.2184	 12.1725	  12.172	  72.845
 1482	  0.2232	 12.3900	  12.390	  74.145
 1508	  0.2264	 12.6062	  12.606	  75.445
 1534	  0.2304	 12.8225	  12.822	  76.745
 1560	  0.2336	 13.0412	  13.041	  78.045
 1586	  0.2372	 13.2587	  13.259	  79.345
 1612	  0.2412	 13.4762	  13.476	  80.645
 1638	  0.2440	 13.6937	  13.694	  81.945
 1664	  0.2468	 13.9113	  13.911	  83.245
 1690	  0.2500	 14.1287	  14.129	  84.545
 1716	  0.2536	 14.3462	  14.346	  85.845
 1742	  0.2576	 14.5637	  14.564	  87.145
 1768	  0.2604	 14.7812	  14.781	  88.445
 1794	  0.2636	 14.9987	  14.999	  89.745
 1820	  0.2664	 15.2162	  15.216	  91.045
 1846	  0.2684	 15.4337	  15.434	  92.345
 1872	  0.2716	 15.6500	  15.650	  93.645
 1898	  0.2748	 15.8675	  15.867	  94.945
 1924	  0.2776	 16.0837	  16.084	  96.245
 1950	  0.2800	 16.3013	  16.301	  97.545
 1976	  0.2828	 16.5175	  16.517	  98.845
 2002	  0.2852	 16.7337	  16.734	 100.145
 2028	  0.2880	 16.9513	  16.951	 101.445
 2054	  0.2908	 17.1675	  17.167	 102.745
 2080	  0.2928	 17.3837	  17.384	 104.045
 2106	  0.2948	 17.6000	  17.600	 105.345
 2132	  0.2960	 17.8175	  17.817	 106.645
 2158	  0.2992	 18.0350	  18.035	 107.945
 2184	  0.3028	 18.2525	  18.253	 109.245
 2210	  0.3044	 18.4700	  18.470	 110.545
 2236	  0.3056	 18.6887	  18.689	 111.845
 2262	  0.3076	 18.9062	  18.906	 113.145
 2288	  0.3092	 19.1237	  19.124	 114.445
 2314	  0.3112	 19.3425	  19.342	 115.745
 2340	  0.3136	 19.5600	  19.560	 117.045
 2366	  0.3156	 19.7787	  19.779	 118.345
 2392	  0.3168	 19.9963	  19.996	 119.645
 2418	  0.3192	 20.2125	  20.212	 120.945
 2444	  0.3216	 20.4300	  20.430	 122.245
 2470	  0.3232	 20.6462	  20.646	 123.545
 2496	  0.3248	 20.8638	  20.864	 124.845
 2522	  0.3268	 21.0800	  21.080	 126.145
 2548	  0.3288	 21.2962	  21.296	 127.445
 2574	  0.3300	 21.5138	  21.514	 128.745
 2600	  0.3316	 21.7300	  21.730	 130.045
 2626	  0.3332	 21.9475	  21.948	 131.345
 2652	  0.3344	 22.1650	  22.165	 132.645
 2678	  0.3360	 22.3813	  22.381	 133.945
 2704	  0.3388	 22.5987	  22.599	 135.245
 2730	  0.3412	 22.8175	  22.817	 136.545
 2756	  0.3408	 23.0362	  23.036	 137.845
 2782	  0.3436	 23.2550	  23.255	 139.145
 2808	  0.3452	 23.4725	  23.472	 140.445
 2834	  0.3476	 23.6900	  23.690	 141.745
 2860	  0.3476	 23.9075	  23.907	 143.045
 2886	  0.3496	 24.1237	  24.124	 144.345
 2912	  0.3504	 24.3412	  24.341	 145.645
 2938	  0.3528	 24.5575	  24.557	 146.945
 2964	  0.3536	 24.7725	  24.772	 148.245
 2990	  0.3552	 24.9900	  24.990	 149.545
 3016	  0.3568	 25.2062	  25.206	 150.845
 3042	  0.3580	 25.4225	  25.422	 152.145
 3068	  0.3588	 25.6388	  25.639	 153.445
 3094	  0.3608	 25.8562	  25.856	 154.745
 3120	  0.3616	 26.0737	  26.074	 156.045
 3146	  0.3632	 26.2913	  26.291	 157.345
 3172	  0.3648	 26.5087	  26.509	 158.645
 3198	  0.3660	 26.7262	  26.726	 159.945
 3224	  0.3672	 26.9450	  26.945	 161.245
 3250	  0.3676	 27.1625	  27.162	 162.545
 3276	  0.3692	 27.3812	  27.381	 163.845
 3302	  0.3704	 27.5987	  27.599	 165.145
 3328	  0.3720	 27.8150	  27.815	 166.445
 3354	  0.3716	 28.0325	  28.032	 167.745
 3380	  0.3732	 28.2512	  28.251	 169.045
 3406	  0.3752	 28.4675	  28.467	 170.345
 3432	  0.3764	 28.6850	  28.685	 171.645
 3458	  0.3776	 28.9025	  28.903	 172.945
 3484	  0.3788	 29.1187	  29.119	 174.245
 3510	  0.3788	 29.3362	  29.336	 175.545
 3536	  0.3808	 29.5537	  29.554	 176.845
 3562	  0.3816	 29.7712	  29.771	 178.145
 3588	  0.3828	 29.9887	  29.989	 179.445
 3614	  0.3840	 30.2050	  30.205	 180.745
 3640	  0.3848	 30.4225	  30.422	 182.045
 3666	  0.3856	 30.6400	  30.640	 183.345
 3692	  0.3868	 30.8587	  30.859	 184.645
 3718	  0.3872	 31.0763	  31.076	 185.945
 3744	  0.3888	 31.2937	  31.294	 187.245
 3770	  0.3892	 31.5125	  31.512	 188.545
 3796	  0.3912	 31.7288	  31.729	 189.845
 3822	  0.3916	 31.9450	  31.945	 191.145
 3848	  0.3924	 32.1625	  32.162	 192.445
 3874	  0.3940	 32.3800	  32.380	 193.745
 3900	  0.3936	 32.5962	  32.596	 195.045
 3926	  0.3956	 32.8137	  32.814	 196.345
 3952	  0.3956	 33.0300	  33.030	 197.645
 3978	  0.3968	 33.2475	  33.247	 198.945
 4004	  0.3980	 33.4650	  33.465	 200.245
 4030	  0.3988	 33.6812	  33.681	 201.545
 4056	  0.4000	 33.8975	  33.897	 202.845
 4082	  0.4000	 34.1150	  34.115	 204.145
 4108	  0.4004	 34.3312	  34.331	 205.445
 4134	  0.4016	 34.5487	  34.549	 206.745
 4160	  0.4024	 34.7663	  34.766	 208.045
 4186	  0.4024	 34.9837	  34.984	 209.345
 4212	  0.4040	 35.2012	  35.201	 210.645
 4238	  0.4048	 35.4188	  35.419	 211.945
 4264	  0.4056	 35.6362	  35.636	 213.245
 4290	  0.4068	 35.8537	  35.854	 214.545
 4316	  0.4076	 36.0725	  36.072	 215.845
 4342	  0.4088	 36.2887	  36.289	 217.145
 4368	  0.4092	 36.5062	  36.506	 218.445
 4394	  0.4092	 36.7238	  36.724	 219.745
 4420	  0.4116	 36.9400	  36.940	 221.045
 4446	  0.4112	 37.1562	  37.156	 222.345
 4472	  0.4124	 37.3737	  37.374	 223.645
 4498	  0.4132	 37.5900	  37.590	 224.945
 4524	  0.4132	 37.8062	  37.806	 226.245
 4550	  0.4140	 38.0238	  38.024	 227.545
 4576	  0.4152	 38.2400	  38.240	 228.845
 4602	  0.4152	 38.4587	  38.459	 230.145
 4628	  0.4164	 38.6763	  38.676	 231.445
 4654	  0.4168	 38.8937	  38.894	 232.745
 4680	  0.4176	 39.1112	  39.111	 234.045
 4706	  0.4176	 39.3300	  39.330	 235.345
 4732	  0.4200	 39.5475	  39.548	 236.645
 4758	  0.4196	 39.7663	  39.766	 237.945
 4784	  0.4204	 39.9837	  39.984	 239.245
 4810	  0.4208	 40.2025	  40.202	 240.545
 4836	  0.4216	 40.4200	  40.420	 241.845
 4862	  0.4224	 40.6375	  40.638	 243.145
 4888	  0.4232	 40.8537	  40.854	 244.445
 4914	  0.4236	 41.0713	  41.071	 245.745
 4940	  0.4236	 41.2887	  41.289	 247.045
 4966	  0.4248	 41.5050	  41.505	 248.345
 4992	  0.4260	 41.7212	  41.721	 249.645
 5018	  0.4260	 41.9375	  41.938	 250.945
 5044	  0.4264	 42.1537	  42.154	 252.245
 5070	  0.4276	 42.3700	  42.370	 253.545
 5096	  0.4280	 42.5863	  42.586	 254.845
 5122	  0.4292	 42.8025	  42.802	 256.145
 5148	  0.4288	 43.0200	  43.020	 257.445
 5174	  0.4300	 43.2388	  43.239	 258.745
 5200	  0.4296	 43.4575	  43.458	 260.045
 5226	  0.4312	 43.6750	  43.675	 261.345
 5252	  0.4316	 43.8937	  43.894	 262.645
 5278	  0.4316	 44.1100	  44.110	 263.945
 5304	  0.4332	 44.3275	  44.327	 265.245
 5330	  0.4336	 44.5462	  44.546	 266.545
 5356	  0.4336	 44.7625	  44.763	 267.845
 5382	  0.4340	 44.9800	  44.980	 269.145
 5408	  0.4352	 45.1962	  45.196	 270.445
 5434	  0.4356	 45.4137	  45.414	 271.745
 5460	  0.4360	 45.6300	  45.630	 273.045
 5486	  0.4360	 45.8475	  45.847	 274.345
 5512	  0.4368	 46.0637	  46.064	 275.645
 5538	  0.4384	 46.2800	  46.280	 276.945
 5564	  0.4388	 46.4975	  46.497	 278.245
 5590	  0.4388	 46.7150	  46.715	 279.545
 5616	  0.4392	 46.9325	  46.932	 280.845
 5642	  0.4392	 47.1488	  47.149	 282.145
 5668	  0.4404	 47.3662	  47.366	 283.445
 5694	  0.4404	 47.5837	  47.584	 284.745
 5720	  0.4416	 47.8025	  47.802	 286.045
 5746	  0.4416	 48.0200	  48.020	 287.345
 5772	  0.4420	 48.2375	  48.237	 288.645
 5798	  0.4424	 48.4562	  48.456	 289.945
 5824	  0.4420	 48.6737	  48.674	 291.245
 5850	  0.4420	 48.8913	  48.891	 292.545
 5876	  0.4428	 49.1075	  49.107	 293.845
 5902	  0.4136	 49.3250	  49.325	 295.145
 5928	  0.0528	 49.5425	  49.542	 296.445
 5954	  0.0028	 49.7587	  49.759	 297.745
 5980	  0.0032	 49.9750	  49.975	 299.045
 5986	  0.0032	 50.0250	  50.025	 299.345
ControlMode:	0
Rate:	 10.0000
(null)
4
step	1
0
5.000000
0.000000
1
1
0.500000
2
step	2
1
5.000000
0.000000
1
1
2.000000
3
step	3
5
2.000000
0.000000
1
0
30
4
step	4
8
0.000000
0.000000
0
0
0.000000
0
2

File: P2-lacre omega 01.txt
0
Diameter:	   5.00
   1.00
Area:	  19.6350
GaugeLength:	  50.00
2009-1-1
A3
001
DataNumber:	3529
index	Load(kN)	Defor(mm)	Stroke(mm)	Time(s)
    0	  0.0092	  0.0088	   0.009	   0.045
   15	  0.0096	  0.1337	   0.134	   0.795
   30	  0.0100	  0.2600	   0.260	   1.545
   45	  0.0108	  0.3850	   0.385	   2.295
   60	  0.0124	  0.5112	   0.511	   3.045
   75	  0.0132	  0.6362	   0.636	   3.795
   90	  0.0132	  0.7625	   0.762	   4.545
  105	  0.0148	  0.8875	   0.887	   5.295
  120	  0.0156	  1.0125	   1.012	   6.045
  135	  0.0148	  1.1375	   1.137	   6.795
  150	  0.0164	  1.2637	   1.264	   7.545
  165	  0.0184	  1.3887	   1.389	   8.295
  180	  0.0192	  1.5150	   1.515	   9.045
  195	  0.0200	  1.6400	   1.640	   9.795
  210	  0.0220	  1.7663	   1.766	  10.545
  225	  0.0232	  1.8925	   1.892	  11.295
  240	  0.0248	  2.0175	   2.017	  12.045
  255	  0.0264	  2.1437	   2.144	  12.795
  270	  0.0272	  2.2687	   2.269	  13.545
  285	  0.0300	  2.3937	   2.394	  14.295
  300	  0.0312	  2.5187	   2.519	  15.045
  315	  0.0328	  2.6450	   2.645	  15.795
  330	  0.0348	  2.7700	   2.770	  16.545
  345	  0.0372	  2.8950	   2.895	  17.295
  360	  0.0392	  3.0200	   3.020	  18.045
  375	  0.0408	  3.1463	   3.146	  18.795
  390	  0.0432	  3.2713	   3.271	  19.545
  405	  0.0448	  3.3963	   3.396	  20.295
  420	  0.0468	  3.5200	   3.520	  21.045
  435	  0.0496	  3.6463	   3.646	  21.795
  450	  0.0520	  3.7700	   3.770	  22.545
  465	  0.0536	  3.8963	   3.896	  23.295
  480	  0.0572	  4.0212	   4.021	  24.045
  495	  0.0596	  4.1462	   4.146	  24.795
  510	  0.0616	  4.2700	   4.270	  25.545
  525	  0.0632	  4.3950	   4.395	  26.295
  540	  0.0652	  4.5200	   4.520	  27.045
  555	  0.0688	  4.6462	   4.646	  27.795
  570	  0.0712	  4.7712	   4.771	  28.545
  585	  0.0732	  4.8962	   4.896	  29.295
  600	  0.0760	  5.0225	   5.023	  30.045
  615	  0.0780	  5.1475	   5.148	  30.795
  630	  0.0812	  5.2725	   5.273	  31.545
  645	  0.0836	  5.3987	   5.399	  32.295
  660	  0.0852	  5.5237	   5.524	  33.045
  675	  0.0872	  5.6500	   5.650	  33.795
  690	  0.0904	  5.7762	   5.776	  34.545
  705	  0.0920	  5.9025	   5.902	  35.295
  720	  0.0944	  6.0275	   6.027	  36.045
  735	  0.0964	  6.1537	   6.154	  36.795
  750	  0.0980	  6.2787	   6.279	  37.545
  765	  0.1004	  6.4050	   6.405	  38.295
  780	  0.1028	  6.5300	   6.530	  39.045
  795	  0.1056	  6.6562	   6.656	  39.795
  810	  0.1072	  6.7812	   6.781	  40.545
  825	  0.1088	  6.9075	   6.907	  41.295
  840	  0.1100	  7.0325	   7.032	  42.045
  855	  0.1128	  7.1588	   7.159	  42.795
  870	  0.1144	  7.2838	   7.284	  43.545
  885	  0.1172	  7.4088	   7.409	  44.295
  900	  0.1180	  7.5338	   7.534	  45.045
  915	  0.1204	  7.6588	   7.659	  45.795
  930	  0.1228	  7.7838	   7.784	  46.545
  945	  0.1240	  7.9088	   7.909	  47.295
  960	  0.1260	  8.0337	   8.034	  48.045
  975	  0.1288	  8.1587	   8.159	  48.795
  990	  0.1292	  8.2837	   8.284	  49.545
 1005	  0.1316	  8.4087	   8.409	  50.295
 1020	  0.1328	  8.5337	   8.534	  51.045
 1035	  0.1356	  8.6587	   8.659	  51.795
 1050	  0.1364	  8.7837	   8.784	  52.545
 1065	  0.1380	  8.9087	   8.909	  53.295
 1080	  0.1392	  9.0350	   9.035	  54.045
 1095	  0.1412	  9.1600	   9.160	  54.795
 1110	  0.1428	  9.2850	   9.285	  55.545
 1125	  0.1448	  9.4100	   9.410	  56.295
 1140	  0.1456	  9.5350	   9.535	  57.045
 1155	  0.1476	  9.6613	   9.661	  57.795
 1170	  0.1492	  9.7863	   9.786	  58.545
 1185	  0.1504	  9.9125	   9.912	  59.295
 1200	  0.1520	 10.0387	  10.039	  60.045
 1215	  0.1532	 10.1650	  10.165	  60.795
 1230	  0.1548	 10.2900	  10.290	  61.545
 1245	  0.1560	 10.4163	  10.416	  62.295
 1260	  0.1572	 10.5425	  10.542	  63.045
 1275	  0.1588	 10.6687	  10.669	  63.795
 1290	  0.1600	 10.7937	  10.794	  64.545
 1305	  0.1616	 10.9200	  10.920	  65.295
 1320	  0.1628	 11.0450	  11.045	  66.045
 1335	  0.1636	 11.1700	  11.170	  66.795
 1350	  0.1640	 11.2950	  11.295	  67.545
 1365	  0.1664	 11.4200	  11.420	  68.295
 1380	  0.1676	 11.5450	  11.545	  69.045
 1395	  0.1696	 11.6700	  11.670	  69.795
 1410	  0.1688	 11.7950	  11.795	  70.545
 1425	  0.1708	 11.9200	  11.920	  71.295
 1440	  0.1720	 12.0450	  12.045	  72.045
 1455	  0.1728	 12.1700	  12.170	  72.795
 1470	  0.1736	 12.2950	  12.295	  73.545
 1485	  0.1748	 12.4200	  12.420	  74.295
 1500	  0.1756	 12.5450	  12.545	  75.045
 1515	  0.1768	 12.6700	  12.670	  75.795
 1530	  0.1780	 12.7950	  12.795	  76.545
 1545	  0.1788	 12.9200	  12.920	  77.295
 1560	  0.1804	 13.0450	  13.045	  78.045
 1575	  0.1808	 13.1712	  13.171	  78.795
 1590	  0.1816	 13.2962	  13.296	  79.545
 1605	  0.1824	 13.4212	  13.421	  80.295
 1620	  0.1840	 13.5462	  13.546	  81.045
 1635	  0.1844	 13.6712	  13.671	  81.795
 1650	  0.1868	 13.7975	  13.797	  82.545
 1665	  0.1864	 13.9225	  13.922	  83.295
 1680	  0.1868	 14.0487	  14.049	  84.045
 1695	  0.1888	 14.1737	  14.174	  84.795
 1710	  0.1900	 14.3000	  14.300	  85.545
 1725	  0.1900	 14.4262	  14.426	  86.295
 1740	  0.1912	 14.5512	  14.551	  87.045
 1755	  0.1916	 14.6775	  14.677	  87.795
 1770	  0.1920	 14.8025	  14.802	  88.545
 1785	  0.1920	 14.9275	  14.927	  89.295
 1800	  0.1940	 15.0538	  15.054	  90.045
 1815	  0.1952	 15.1788	  15.179	  90.795
 1830	  0.1960	 15.3038	  15.304	  91.545
 1845	  0.1964	 15.4300	  15.430	  92.295
 1860	  0.1976	 15.5550	  15.555	  93.045
 1875	  0.1984	 15.6800	  15.680	  93.795
 1890	  0.1992	 15.8050	  15.805	  94.545
 1905	  0.2004	 15.9312	  15.931	  95.295
 1920	  0.2008	 16.0562	  16.056	  96.045
 1935	  0.2008	 16.1812	  16.181	  96.795
 1950	  0.2020	 16.3062	  16.306	  97.545
 1965	  0.2024	 16.4312	  16.431	  98.295
 1980	  0.2032	 16.5575	  16.557	  99.045
 1995	  0.2048	 16.6825	  16.682	  99.795
 2010	  0.2044	 16.8075	  16.807	 100.545
 2025	  0.2052	 16.9325	  16.932	 101.295
 2040	  0.2072	 17.0575	  17.057	 102.045
 2055	  0.2072	 17.1838	  17.184	 102.795
 2070	  0.2080	 17.3088	  17.309	 103.545
 2085	  0.2084	 17.4350	  17.435	 104.295
 2100	  0.2084	 17.5600	  17.560	 105.045
 2115	  0.2100	 17.6850	  17.685	 105.795
 2130	  0.2100	 17.8112	  17.811	 106.545
 2145	  0.2108	 17.9350	  17.935	 107.295
 2160	  0.2116	 18.0612	  18.061	 108.045
 2175	  0.2124	 18.1862	  18.186	 108.795
 2190	  0.2128	 18.3125	  18.312	 109.545
 2205	  0.2140	 18.4375	  18.438	 110.295
 2220	  0.2148	 18.5637	  18.564	 111.045
 2235	  0.2144	 18.6900	  18.690	 111.795
 2250	  0.2148	 18.8150	  18.815	 112.545
 2265	  0.2164	 18.9400	  18.940	 113.295
 2280	  0.2160	 19.0662	  19.066	 114.045
 2295	  0.2168	 19.1912	  19.191	 114.795
 2310	  0.2176	 19.3162	  19.316	 115.545
 2325	  0.2184	 19.4412	  19.441	 116.295
 2340	  0.2196	 19.5662	  19.566	 117.045
 2355	  0.2200	 19.6912	  19.691	 117.795
 2370	  0.2204	 19.8162	  19.816	 118.545
 2385	  0.2216	 19.9425	  19.942	 119.295
 2400	  0.2224	 20.0675	  20.067	 120.045
 2415	  0.2224	 20.1925	  20.192	 120.795
 2430	  0.2232	 20.3188	  20.319	 121.545
 2445	  0.2236	 20.4438	  20.444	 122.295
 2460	  0.2244	 20.5700	  20.570	 123.045
 2475	  0.2252	 20.6938	  20.694	 123.795
 2490	  0.2252	 20.8200	  20.820	 124.545
 2505	  0.2252	 20.9438	  20.944	 125.295
 2520	  0.2252	 21.0688	  21.069	 126.045
 2535	  0.2256	 21.1938	  21.194	 126.795
 2550	  0.2268	 21.3188	  21.319	 127.545
 2565	  0.2276	 21.4450	  21.445	 128.295
 2580	  0.2280	 21.5700	  21.570	 129.045
 2595	  0.2296	 21.6950	  21.695	 129.795
 2610	  0.2288	 21.8200	  21.820	 130.545
 2625	  0.2296	 21.9462	  21.946	 131.295
 2640	  0.2304	 22.0712	  22.071	 132.045
 2655	  0.2312	 22.1962	  22.196	 132.795
 2670	  0.2320	 22.3225	  22.323	 133.545
 2685	  0.2328	 22.4487	  22.449	 134.295
 2700	  0.2316	 22.5737	  22.574	 135.045
 2715	  0.2332	 22.7000	  22.700	 135.795
 2730	  0.2332	 22.8250	  22.825	 136.545
 2745	  0.2328	 22.9500	  22.950	 137.295
 2760	  0.2340	 23.0763	  23.076	 138.045
 2775	  0.2348	 23.2013	  23.201	 138.795
 2790	  0.2352	 23.3275	  23.327	 139.545
 2805	  0.2360	 23.4525	  23.452	 140.295
 2820	  0.2360	 23.5775	  23.577	 141.045
 2835	  0.2356	 23.7037	  23.704	 141.795
 2850	  0.2364	 23.8287	  23.829	 142.545
 2865	  0.2364	 23.9537	  23.954	 143.295
 2880	  0.2372	 24.0787	  24.079	 144.045
 2895	  0.2376	 24.2037	  24.204	 144.795
 2910	  0.2384	 24.3287	  24.329	 145.545
 2925	  0.2388	 24.4537	  24.454	 146.295
 2940	  0.2388	 24.5787	  24.579	 147.045
 2955	  0.2388	 24.7050	  24.705	 147.795
 2970	  0.2396	 24.8287	  24.829	 148.545
 2985	  0.2404	 24.9537	  24.954	 149.295
 3000	  0.2404	 25.0787	  25.079	 150.045
 3015	  0.2416	 25.2037	  25.204	 150.795
 3030	  0.2408	 25.3300	  25.330	 151.545
 3045	  0.2416	 25.4550	  25.455	 152.295
 3060	  0.2416	 25.5800	  25.580	 153.045
 3075	  0.2424	 25.7062	  25.706	 153.795
 3090	  0.2432	 25.8312	  25.831	 154.545
 3105	  0.2424	 25.9575	  25.957	 155.295
 3120	  0.2428	 26.0825	  26.082	 156.045
 3135	  0.2440	 26.2087	  26.209	 156.795
 3150	  0.2444	 26.3350	  26.335	 157.545
 3165	  0.2448	 26.4600	  26.460	 158.295
 3180	  0.2464	 26.5863	  26.586	 159.045
 3195	  0.2456	 26.7125	  26.712	 159.795
 3210	  0.2460	 26.8387	  26.839	 160.545
 3225	  0.2460	 26.9637	  26.964	 161.295
 3240	  0.2476	 27.0900	  27.090	 162.045
 3255	  0.2472	 27.2150	  27.215	 162.795
 3270	  0.2476	 27.3412	  27.341	 163.545
 3285	  0.2488	 27.4662	  27.466	 164.295
 3300	  0.2484	 27.5912	  27.591	 165.045
 3315	  0.2480	 27.7150	  27.715	 165.795
 3330	  0.2484	 27.8412	  27.841	 166.545
 3345	  0.2488	 27.9662	  27.966	 167.295
 3360	  0.2500	 28.0912	  28.091	 168.045
 3375	  0.2496	 28.2162	  28.216	 168.795
 3390	  0.2500	 28.3412	  28.341	 169.545
 3405	  0.2492	 28.4662	  28.466	 170.295
 3420	  0.2500	 28.5912	  28.591	 171.045
 3435	  0.2488	 28.7162	  28.716	 171.795
 3450	  0.2496	 28.8412	  28.841	 172.545
 3465	  0.2508	 28.9662	  28.966	 173.295
 3480	  0.2492	 29.0912	  29.091	 174.045
 3495	  0.0016	 29.2150	  29.215	 174.795
 3510	  0.0024	 29.3387	  29.339	 175.545
 3525	  0.0024	 29.4625	  29.462	 176.295
 3528	  0.0016	 29.4875	  29.487	 176.445
ControlMode:	0
Rate:	 10.0000
(null)
4
step	1
0
5.000000
0.000000
1
1
0.500000
2
step	2
1
5.000000
0.000000
1
1
2.000000
3
step	3
5
2.000000
0.000000
1
0
30
4
step	4
8
0.000000
0.000000
0
0
0.000000
0
2