Folder: UFTM/Laboratório de Resistência dos Materiais/Dados - Compressão

File: P2 - Mac 01.txt
0
Diameter:	   5.00
   1.00
Area:	  19.6350
GaugeLength:	  50.00
2009-1-1
A3
001
DataNumber:	336
index	Load(kN)	Defor(mm)	Stroke(mm)	Time(s)
    0	  0.0080	  0.0088	   0.009	   0.045
    2	  0.0130	  0.0250	   0.025	   0.145
    4	  0.0200	  0.0412	   0.041	   0.245
    6	  0.0290	  0.0587	   0.059	   0.345
    8	  0.0390	  0.0750	   0.075	   0.445
   10	  0.0500	  0.0912	   0.091	   0.545
   12	  0.0640	  0.1075	   0.107	   0.645
   14	  0.0800	  0.1250	   0.125	   0.745
   16	  0.0970	  0.1412	   0.141	   0.845
   18	  0.1150	  0.1575	   0.157	   0.945
   20	  0.1330	  0.1750	   0.175	   1.045
   22	  0.1520	  0.1912	   0.191	   1.145
   24	  0.1720	  0.2075	   0.207	   1.245
   26	  0.1960	  0.2237	   0.224	   1.345
   28	  0.2210	  0.2412	   0.241	   1.445
   30	  0.2510	  0.2575	   0.257	   1.545
   32	  0.2820	  0.2738	   0.274	   1.645
   34	  0.3150	  0.2912	   0.291	   1.745
   36	  0.3490	  0.3075	   0.308	   1.845
   38	  0.3870	  0.3237	   0.324	   1.945
   40	  0.4250	  0.3400	   0.340	   2.045
   42	  0.4630	  0.3562	   0.356	   2.145
   44	  0.5020	  0.3738	   0.374	   2.245
   46	  0.5390	  0.3900	   0.390	   2.345
   48	  0.5770	  0.4062	   0.406	   2.445
   50	  0.6150	  0.4237	   0.424	   2.545
   52	  0.6530	  0.4400	   0.440	   2.645
   54	  0.6920	  0.4562	   0.456	   2.745
   56	  0.7280	  0.4725	   0.472	   2.845
   58	  0.7650	  0.4900	   0.490	   2.945
   60	  0.8030	  0.5062	   0.506	   3.045
   62	  0.8400	  0.5225	   0.522	   3.145
   64	  0.8770	  0.5387	   0.539	   3.245
   66	  0.9150	  0.5562	   0.556	   3.345
   68	  0.9520	  0.5725	   0.572	   3.445
   70	  0.9900	  0.5888	   0.589	   3.545
   72	  1.0270	  0.6050	   0.605	   3.645
   74	  1.0640	  0.6225	   0.623	   3.745
   76	  1.1000	  0.6387	   0.639	   3.845
   78	  1.1360	  0.6550	   0.655	   3.945
   80	  1.1730	  0.6725	   0.673	   4.045
   82	  1.2100	  0.6887	   0.689	   4.145
   84	  1.2480	  0.7050	   0.705	   4.245
   86	  1.2850	  0.7225	   0.722	   4.345
   88	  1.3220	  0.7387	   0.739	   4.445
   90	  1.3610	  0.7550	   0.755	   4.545
   92	  1.4010	  0.7725	   0.772	   4.645
   94	  1.4420	  0.7887	   0.789	   4.745
   96	  1.4840	  0.8050	   0.805	   4.845
   98	  1.5270	  0.8225	   0.822	   4.945
  100	  1.5690	  0.8388	   0.839	   5.045
  102	  1.6110	  0.8550	   0.855	   5.145
  104	  1.6540	  0.8725	   0.873	   5.245
  106	  1.6960	  0.8887	   0.889	   5.345
  108	  1.7390	  0.9050	   0.905	   5.445
  110	  1.7820	  0.9225	   0.922	   5.545
  112	  1.8250	  0.9387	   0.939	   5.645
  114	  1.8710	  0.9562	   0.956	   5.745
  116	  1.9180	  0.9725	   0.972	   5.845
  118	  1.9650	  0.9887	   0.989	   5.945
  120	  2.0140	  1.0050	   1.005	   6.045
  122	  2.0610	  1.0225	   1.022	   6.145
  124	  2.1100	  1.0387	   1.039	   6.245
  126	  2.1600	  1.0550	   1.055	   6.345
  128	  2.2090	  1.0725	   1.072	   6.445
  130	  2.2590	  1.0888	   1.089	   6.545
  132	  2.3080	  1.1062	   1.106	   6.645
  134	  2.3590	  1.1225	   1.122	   6.745
  136	  2.4090	  1.1387	   1.139	   6.845
  138	  2.4570	  1.1562	   1.156	   6.945
  140	  2.5060	  1.1725	   1.173	   7.045
  142	  2.5550	  1.1888	   1.189	   7.145
  144	  2.6030	  1.2062	   1.206	   7.245
  146	  2.6510	  1.2225	   1.222	   7.345
  148	  2.6990	  1.2387	   1.239	   7.445
  150	  2.7450	  1.2563	   1.256	   7.545
  152	  2.7920	  1.2725	   1.272	   7.645
  154	  2.8380	  1.2887	   1.289	   7.745
  156	  2.8840	  1.3062	   1.306	   7.845
  158	  2.9280	  1.3225	   1.322	   7.945
  160	  2.9640	  1.3388	   1.339	   8.045
  162	  3.0090	  1.3562	   1.356	   8.145
  164	  3.0550	  1.3725	   1.372	   8.245
  166	  3.1010	  1.3900	   1.390	   8.345
  168	  3.1450	  1.4062	   1.406	   8.445
  170	  3.1900	  1.4225	   1.423	   8.545
  172	  3.2310	  1.4400	   1.440	   8.645
  174	  3.2720	  1.4562	   1.456	   8.745
  176	  3.3150	  1.4725	   1.472	   8.845
  178	  3.3560	  1.4887	   1.489	   8.945
  180	  3.3970	  1.5063	   1.506	   9.045
  182	  1.6990	  1.5225	   1.522	   9.145
  184	  1.7370	  1.5400	   1.540	   9.245
  186	  1.7820	  1.5562	   1.556	   9.345
  188	  1.8250	  1.5738	   1.574	   9.445
  190	  1.8680	  1.5900	   1.590	   9.545
  192	  1.9070	  1.6075	   1.607	   9.645
  194	  1.9430	  1.6237	   1.624	   9.745
  196	  1.9780	  1.6413	   1.641	   9.845
  198	  2.0100	  1.6575	   1.657	   9.945
  200	  2.0120	  1.6750	   1.675	  10.045
  202	  2.0080	  1.6912	   1.691	  10.145
  204	  2.0330	  1.7075	   1.707	  10.245
  206	  2.0570	  1.7250	   1.725	  10.345
  208	  2.0790	  1.7412	   1.741	  10.445
  210	  2.0820	  1.7575	   1.757	  10.545
  212	  2.0940	  1.7750	   1.775	  10.645
  214	  2.1050	  1.7912	   1.791	  10.745
  216	  2.1170	  1.8087	   1.809	  10.845
  218	  2.1180	  1.8250	   1.825	  10.945
  220	  2.1240	  1.8425	   1.842	  11.045
  222	  2.1330	  1.8587	   1.859	  11.145
  224	  2.0430	  1.8750	   1.875	  11.245
  226	  2.0180	  1.8925	   1.892	  11.345
  228	  2.0090	  1.9087	   1.909	  11.445
  230	  2.0030	  1.9262	   1.926	  11.545
  232	  1.9990	  1.9425	   1.942	  11.645
  234	  1.9550	  1.9600	   1.960	  11.745
  236	  1.2510	  1.9762	   1.976	  11.845
  238	  1.1130	  1.9925	   1.992	  11.945
  240	  1.1020	  2.0100	   2.010	  12.045
  242	  1.0980	  2.0262	   2.026	  12.145
  244	  1.0920	  2.0438	   2.044	  12.245
  246	  1.0880	  2.0600	   2.060	  12.345
  248	  1.0840	  2.0775	   2.077	  12.445
  250	  1.0770	  2.0938	   2.094	  12.545
  252	  1.0630	  2.1100	   2.110	  12.645
  254	  1.0580	  2.1275	   2.128	  12.745
  256	  1.0510	  2.1437	   2.144	  12.845
  258	  1.0440	  2.1612	   2.161	  12.945
  260	  1.0330	  2.1775	   2.178	  13.045
  262	  1.0230	  2.1937	   2.194	  13.145
  264	  1.0110	  2.2113	   2.211	  13.245
  266	  0.9850	  2.2275	   2.227	  13.345
  268	  0.9600	  2.2450	   2.245	  13.445
  270	  0.6970	  2.2613	   2.261	  13.545
  272	  0.6020	  2.2787	   2.279	  13.645
  274	  0.5750	  2.2950	   2.295	  13.745
  276	  0.5580	  2.3112	   2.311	  13.845
  278	  0.5450	  2.3287	   2.329	  13.945
  280	  0.5230	  2.3450	   2.345	  14.045
  282	  0.4900	  2.3625	   2.362	  14.145
  284	  0.4440	  2.3787	   2.379	  14.245
  286	  0.3950	  2.3963	   2.396	  14.345
  288	  0.2590	  2.4125	   2.412	  14.445
  290	  0.2170	  2.4288	   2.429	  14.545
  292	  0.2020	  2.4462	   2.446	  14.645
  294	  0.1940	  2.4625	   2.462	  14.745
  296	  0.1710	  2.4800	   2.480	  14.845
  298	  0.1340	  2.4962	   2.496	  14.945
  300	  0.1210	  2.5137	   2.514	  15.045
  302	  0.1120	  2.5300	   2.530	  15.145
  304	  0.1040	  2.5462	   2.546	  15.245
  306	  0.0980	  2.5638	   2.564	  15.345
  308	  0.0910	  2.5800	   2.580	  15.445
  310	  0.0870	  2.5963	   2.596	  15.545
  312	  0.0830	  2.6137	   2.614	  15.645
  314	  0.0800	  2.6300	   2.630	  15.745
  316	  0.0790	  2.6475	   2.648	  15.845
  318	  0.0770	  2.6637	   2.664	  15.945
  320	  0.0750	  2.6812	   2.681	  16.045
  322	  0.0730	  2.6975	   2.697	  16.145
  324	  0.0710	  2.7137	   2.714	  16.245
  326	  0.0700	  2.7313	   2.731	  16.345
  328	  0.0690	  2.7475	   2.747	  16.445
  330	  0.0660	  2.7650	   2.765	  16.545
  332	  0.0640	  2.7812	   2.781	  16.645
  334	  0.0630	  2.7975	   2.797	  16.745
  335	  0.0630	  2.8062	   2.806	  16.795
ControlMode:	0
Rate:	 10.0000
(null)
4
step	1
0
5.000000
0.000000
1
1
0.500000
2
step	2
1
5.000000
0.000000
1
1
2.000000
3
step	3
5
2.000000
0.000000
1
0
30
4
step	4
8
0.000000
0.000000
0
0
0.000000
0
2

File: P2 - Mac 03.txt
0
Diameter:	   5.00
   1.00
Area:	  19.6350
GaugeLength:	  50.00
2009-1-1
A3
001
DataNumber:	418
index	Load(kN)	Defor(mm)	Stroke(mm)	Time(s)
    0	  0.0060	  0.0075	   0.007	   0.045
    2	  0.0090	  0.0250	   0.025	   0.145
    4	  0.0070	  0.0412	   0.041	   0.245
    6	  0.0120	  0.0575	   0.057	   0.345
    8	  0.0180	  0.0750	   0.075	   0.445
   10	  0.0220	  0.0912	   0.091	   0.545
   12	  0.0160	  0.1075	   0.107	   0.645
   14	  0.0050	  0.1250	   0.125	   0.745
   16	  0.0040	  0.1412	   0.141	   0.845
   18	  0.0090	  0.1587	   0.159	   0.945
   20	  0.0240	  0.1750	   0.175	   1.045
   22	  0.0440	  0.1912	   0.191	   1.145
   24	  0.0670	  0.2087	   0.209	   1.245
   26	  0.0910	  0.2250	   0.225	   1.345
   28	  0.1170	  0.2412	   0.241	   1.445
   30	  0.1430	  0.2587	   0.259	   1.545
   32	  0.1690	  0.2750	   0.275	   1.645
   34	  0.1970	  0.2912	   0.291	   1.745
   36	  0.2270	  0.3088	   0.309	   1.845
   38	  0.2580	  0.3250	   0.325	   1.945
   40	  0.2910	  0.3413	   0.341	   2.045
   42	  0.3240	  0.3587	   0.359	   2.145
   44	  0.3570	  0.3750	   0.375	   2.245
   46	  0.3890	  0.3925	   0.392	   2.345
   48	  0.4200	  0.4087	   0.409	   2.445
   50	  0.4530	  0.4250	   0.425	   2.545
   52	  0.4860	  0.4425	   0.442	   2.645
   54	  0.5170	  0.4587	   0.459	   2.745
   56	  0.5490	  0.4762	   0.476	   2.845
   58	  0.5800	  0.4925	   0.492	   2.945
   60	  0.6140	  0.5087	   0.509	   3.045
   62	  0.6460	  0.5263	   0.526	   3.145
   64	  0.6790	  0.5425	   0.542	   3.245
   66	  0.7110	  0.5587	   0.559	   3.345
   68	  0.7440	  0.5763	   0.576	   3.445
   70	  0.7780	  0.5925	   0.592	   3.545
   72	  0.8120	  0.6087	   0.609	   3.645
   74	  0.8460	  0.6262	   0.626	   3.745
   76	  0.8810	  0.6425	   0.642	   3.845
   78	  0.9180	  0.6600	   0.660	   3.945
   80	  0.9560	  0.6762	   0.676	   4.045
   82	  0.9950	  0.6937	   0.694	   4.145
   84	  1.0360	  0.7100	   0.710	   4.245
   86	  1.0770	  0.7262	   0.726	   4.345
   88	  1.1200	  0.7437	   0.744	   4.445
   90	  1.1640	  0.7600	   0.760	   4.545
   92	  1.2080	  0.7763	   0.776	   4.645
   94	  1.2530	  0.7937	   0.794	   4.745
   96	  1.2980	  0.8100	   0.810	   4.845
   98	  1.3430	  0.8275	   0.827	   4.945
  100	  1.3870	  0.8438	   0.844	   5.045
  102	  1.4330	  0.8587	   0.859	   5.145
  104	  1.4790	  0.8762	   0.876	   5.245
  106	  1.5210	  0.8925	   0.892	   5.345
  108	  1.5630	  0.9100	   0.910	   5.445
  110	  1.6060	  0.9262	   0.926	   5.545
  112	  1.3870	  0.9437	   0.944	   5.645
  114	  0.8970	  0.9600	   0.960	   5.745
  116	  0.9200	  0.9762	   0.976	   5.845
  118	  0.9440	  0.9937	   0.994	   5.945
  120	  0.9670	  1.0100	   1.010	   6.045
  122	  0.9860	  1.0275	   1.028	   6.145
  124	  1.0040	  1.0437	   1.044	   6.245
  126	  1.0180	  1.0600	   1.060	   6.345
  128	  1.0330	  1.0775	   1.077	   6.445
  130	  1.0510	  1.0938	   1.094	   6.545
  132	  1.0660	  1.1112	   1.111	   6.645
  134	  1.0820	  1.1275	   1.127	   6.745
  136	  1.0970	  1.1437	   1.144	   6.845
  138	  1.1100	  1.1612	   1.161	   6.945
  140	  1.1170	  1.1775	   1.178	   7.045
  142	  1.1130	  1.1950	   1.195	   7.145
  144	  1.1180	  1.2112	   1.211	   7.245
  146	  1.1280	  1.2275	   1.227	   7.345
  148	  1.1390	  1.2450	   1.245	   7.445
  150	  1.1490	  1.2613	   1.261	   7.545
  152	  1.1620	  1.2787	   1.279	   7.645
  154	  1.1780	  1.2950	   1.295	   7.745
  156	  1.1920	  1.3112	   1.311	   7.845
  158	  1.2080	  1.3288	   1.329	   7.945
  160	  1.2240	  1.3450	   1.345	   8.045
  162	  1.2400	  1.3612	   1.361	   8.145
  164	  1.2570	  1.3787	   1.379	   8.245
  166	  1.2710	  1.3950	   1.395	   8.345
  168	  1.2780	  1.4112	   1.411	   8.445
  170	  1.2920	  1.4287	   1.429	   8.545
  172	  1.3080	  1.4450	   1.445	   8.645
  174	  1.3230	  1.4612	   1.461	   8.745
  176	  1.3390	  1.4787	   1.479	   8.845
  178	  1.3550	  1.4950	   1.495	   8.945
  180	  1.3690	  1.5125	   1.512	   9.045
  182	  1.3840	  1.5287	   1.529	   9.145
  184	  1.3990	  1.5450	   1.545	   9.245
  186	  1.4140	  1.5625	   1.562	   9.345
  188	  1.4300	  1.5788	   1.579	   9.445
  190	  1.4440	  1.5962	   1.596	   9.545
  192	  1.4460	  1.6125	   1.612	   9.645
  194	  1.4410	  1.6287	   1.629	   9.745
  196	  1.4260	  1.6463	   1.646	   9.845
  198	  1.4210	  1.6625	   1.662	   9.945
  200	  1.4330	  1.6787	   1.679	  10.045
  202	  1.4440	  1.6962	   1.696	  10.145
  204	  1.4540	  1.7125	   1.712	  10.245
  206	  1.4620	  1.7300	   1.730	  10.345
  208	  1.4700	  1.7462	   1.746	  10.445
  210	  1.4790	  1.7637	   1.764	  10.545
  212	  1.4870	  1.7800	   1.780	  10.645
  214	  1.4950	  1.7962	   1.796	  10.745
  216	  1.5020	  1.8137	   1.814	  10.845
  218	  1.5090	  1.8300	   1.830	  10.945
  220	  1.5170	  1.8462	   1.846	  11.045
  222	  1.5260	  1.8637	   1.864	  11.145
  224	  1.5350	  1.8800	   1.880	  11.245
  226	  1.5400	  1.8975	   1.897	  11.345
  228	  1.5440	  1.9137	   1.914	  11.445
  230	  1.5480	  1.9300	   1.930	  11.545
  232	  1.5550	  1.9475	   1.947	  11.645
  234	  1.5440	  1.9638	   1.964	  11.745
  236	  1.5290	  1.9800	   1.980	  11.845
  238	  1.5150	  1.9975	   1.997	  11.945
  240	  1.4400	  2.0150	   2.015	  12.045
  242	  1.4140	  2.0312	   2.031	  12.145
  244	  1.3840	  2.0487	   2.049	  12.245
  246	  1.3660	  2.0650	   2.065	  12.345
  248	  1.3580	  2.0812	   2.081	  12.445
  250	  1.3430	  2.0987	   2.099	  12.545
  252	  1.3310	  2.1150	   2.115	  12.645
  254	  1.3180	  2.1312	   2.131	  12.745
  256	  1.3100	  2.1488	   2.149	  12.845
  258	  1.3080	  2.1650	   2.165	  12.945
  260	  1.3100	  2.1812	   2.181	  13.045
  262	  1.3140	  2.1988	   2.199	  13.145
  264	  1.3170	  2.2150	   2.215	  13.245
  266	  1.3200	  2.2313	   2.231	  13.345
  268	  1.3050	  2.2487	   2.249	  13.445
  270	  1.2970	  2.2650	   2.265	  13.545
  272	  1.2950	  2.2825	   2.283	  13.645
  274	  1.2900	  2.2987	   2.299	  13.745
  276	  1.2750	  2.3150	   2.315	  13.845
  278	  1.2690	  2.3325	   2.332	  13.945
  280	  1.2690	  2.3487	   2.349	  14.045
  282	  1.2680	  2.3650	   2.365	  14.145
  284	  1.2700	  2.3825	   2.382	  14.245
  286	  1.2720	  2.3987	   2.399	  14.345
  288	  1.2750	  2.4150	   2.415	  14.445
  290	  1.2770	  2.4325	   2.432	  14.545
  292	  1.2800	  2.4488	   2.449	  14.645
  294	  1.2810	  2.4650	   2.465	  14.745
  296	  1.2830	  2.4825	   2.482	  14.845
  298	  1.2860	  2.4987	   2.499	  14.945
  300	  1.2880	  2.5150	   2.515	  15.045
  302	  1.2910	  2.5325	   2.533	  15.145
  304	  1.2940	  2.5487	   2.549	  15.245
  306	  1.2970	  2.5650	   2.565	  15.345
  308	  1.3000	  2.5825	   2.582	  15.445
  310	  1.3040	  2.5987	   2.599	  15.545
  312	  1.3090	  2.6163	   2.616	  15.645
  314	  1.3000	  2.6325	   2.632	  15.745
  316	  1.3020	  2.6487	   2.649	  15.845
  318	  1.3050	  2.6662	   2.666	  15.945
  320	  1.3090	  2.6825	   2.682	  16.045
  322	  1.3110	  2.6988	   2.699	  16.145
  324	  1.2970	  2.7162	   2.716	  16.245
  326	  1.2930	  2.7325	   2.732	  16.345
  328	  1.2950	  2.7487	   2.749	  16.445
  330	  1.2960	  2.7662	   2.766	  16.545
  332	  1.2960	  2.7825	   2.783	  16.645
  334	  1.2960	  2.7987	   2.799	  16.745
  336	  1.2930	  2.8162	   2.816	  16.845
  338	  1.2900	  2.8325	   2.832	  16.945
  340	  1.2860	  2.8500	   2.850	  17.045
  342	  1.2850	  2.8663	   2.866	  17.145
  344	  1.2590	  2.8825	   2.882	  17.245
  346	  0.4970	  2.8987	   2.899	  17.345
  348	  0.4540	  2.9162	   2.916	  17.445
  350	  0.4390	  2.9325	   2.932	  17.545
  352	  0.4350	  2.9500	   2.950	  17.645
  354	  0.4340	  2.9662	   2.966	  17.745
  356	  0.4350	  2.9825	   2.982	  17.845
  358	  0.4380	  3.0000	   3.000	  17.945
  360	  0.4400	  3.0162	   3.016	  18.045
  362	  0.4420	  3.0325	   3.033	  18.145
  364	  0.4280	  3.0500	   3.050	  18.245
  366	  0.3780	  3.0662	   3.066	  18.345
  368	  0.3540	  3.0825	   3.082	  18.445
  370	  0.3220	  3.1000	   3.100	  18.545
  372	  0.3170	  3.1163	   3.116	  18.645
  374	  0.3160	  3.1325	   3.132	  18.745
  376	  0.3010	  3.1487	   3.149	  18.845
  378	  0.2980	  3.1662	   3.166	  18.945
  380	  0.2970	  3.1825	   3.182	  19.045
  382	  0.2950	  3.1988	   3.199	  19.145
  384	  0.2920	  3.2162	   3.216	  19.245
  386	  0.2910	  3.2325	   3.232	  19.345
  388	  0.2900	  3.2487	   3.249	  19.445
  390	  0.2900	  3.2662	   3.266	  19.545
  392	  0.2900	  3.2825	   3.283	  19.645
  394	  0.2880	  3.2987	   3.299	  19.745
  396	  0.2840	  3.3150	   3.315	  19.845
  398	  0.2820	  3.3325	   3.332	  19.945
  400	  0.2790	  3.3487	   3.349	  20.045
  402	  0.2780	  3.3650	   3.365	  20.145
  404	  0.2660	  3.3825	   3.382	  20.245
  406	  0.2510	  3.3987	   3.399	  20.345
  408	  0.2500	  3.4150	   3.415	  20.445
  410	  0.2500	  3.4312	   3.431	  20.545
  412	  0.2490	  3.4488	   3.449	  20.645
  414	  0.2490	  3.4650	   3.465	  20.745
  416	  0.2480	  3.4812	   3.481	  20.845
  417	  0.2470	  3.4900	   3.490	  20.895
ControlMode:	0
Rate:	 10.0000
(null)
4
step	1
0
5.000000
0.000000
1
1
0.500000
2
step	2
1
5.000000
0.000000
1
1
2.000000
3
step	3
5
2.000000
0.000000
1
0
30
4
step	4
8
0.000000
0.000000
0
0
0.000000
0
2